Folder: Dorgan_Laubach_Research/Data/HDPE (part 2)

File: HDPE3_Column 1_20211229_164110.csv
***Scan Config Information***,,,,,,,***Reference Scan Information***,,,,,,,,
Scan Config Name:,Column 1,,,,,,Scan Config Name:,Built-in Factory Reference,,,,,,
Scan Config Type:,Slew,Num Section:,1,,,,Scan Config Type:,Slew,Num Section:,1,,,,,
Section Config Type:,Column,,,,,,Section Config Type:,Column,,,,,,,
Start Wavelength (nm):,900,,,,,,Start Wavelength (nm):,900.0,,,,,,
End Wavelength (nm):,1700,,,,,,End Wavelength (nm):,1700.0,,,,,,
Pattern Width (nm):,7.03,,,,,,Pattern Width (nm):,7.03,,,,,,,
Exposure (ms):,0.635,,,,,,Exposure (ms):,0.635,,,,,,,
Digital Resolution:,228,,,,,,Digital Resolution:,228,,,,,,,
Num Repeats:,6,,,,,,Num Repeats:,30,,,,,,,
PGA Gain:,64,,,,,,PGA Gain:,64,,,,,,
System Temp (C):,25.5,,,,,,System Temp (C):,24.17,,,,,,,
Humidity (%):,36.21,,,,,,Humidity (%):,30.0,,,,,,
Battery Capacity (%):,75,,,,,,Lamp Intensity:,2449,,,,,,,
Lamp Intensity:,2522,,,,,,Data Date-Time:,19/12/12T12:44:54,,,,,,
Data Date-Time:,18/1/1T7:10:31,,,,,,,,,,,,,,
Total Measurement Time in sec:,4.262,,,,,,,,,,,,,
***General Information***,,,,,,,***Calibration Coefficients***,,,,,,,,
Model Name:,NIR-S-G1,,,,,,Shift Vector Coefficients:,-8.44101,0.0554567,-8.45244e-05,,,,,
Serial Number:,947R055,95UB122GC0A947R055,,,,,Pixel to Wavelength Coefficients:,1795.87,-0.92014,-0.00023961,,,,,
APP Version:,2.16.7,,,,,,,,,,,,,
TIVA Version:,2.4.4,,,,,,***Lamp Usage * **,,,,,,,,
UUID:,de:67:c:88:67:2c:2d:21,,,,,,Total Time(HH:MM:SS):,11min 28sec ,,,,,,,
Main Board Version:,D,,,,,,***Device/Error Status***,,,,,,,,
Detector Board Version:,B,,,,,,Device Status:,0x00000031,,,,,,
,,,,,,,Error status:,0x00000000,Error Code:,0x00000000000000000000000000000000,,,,,
,,,,,,,,,Error Details:,Not Found,,,,,
***Scan Data***,,,,,,,,,,,,,,,
Wavelength (nm),Absorbance (AU),Reference Signal (unitless),Sample Signal (unitless)
901.841,1.57368,99968.0,2668
905.754,1.56187,108993.0,2989
909.663,1.56417,118185.0,3224
913.568,1.54511,129285.0,3685
917.469,1.62709,143347.0,3383
921.365,1.59507,160437.0,4076
925.257,1.62425,180387.0,4285
929.144,1.60005,201426.0,5059
933.028,1.606121,220694.0,5466
936.906,1.61827,237501.0,5720
942.072,1.59936,256956.0,6464
945.94,1.58125,270636.0,7098
949.805,1.58562,283621.0,7364
953.665,1.58147,296982.0,7785
957.521,1.58908,310733.0,8004
961.373,1.58674,324587.0,8406
965.22,1.57579,339205.0,9009
969.063,1.588031,353669.0,9132
972.902,1.57906,368253.0,9707
976.736,1.58267,382531.0,10000
981.842,1.58342,399901.0,10436
985.666,1.57159,411528.0,11036
989.486,1.59033,422199.0,10844
993.302,1.57756,431172.0,11405
997.113,1.59111,438051.0,11231
1000.92,1.589586,444216.0,11429
1004.72,1.59839,449307.0,11328
1008.52,1.604596,453601.0,11274
1012.32,1.59794,456801.0,11529
1016.11,1.60964,459312.0,11284
1021.15,1.60361,461643.0,11500
1024.93,1.60246,463069.0,11566
1028.71,1.61671,463868.0,11212
1032.48,1.61409,464326.0,11291
1036.24,1.621,466001.0,11153
1040.01,1.62118,466870.0,11169
1043.77,1.62301,467033.0,11126
1047.52,1.62955,467045.0,10960
1051.27,1.64232,467467.0,10652
1055.01,1.62973,467627.0,10969
1060,1.66108,468351.0,10221
1063.74,1.63296,469050.0,10921
1067.47,1.63337,469880.0,10930
1071.19,1.62658,471228.0,11134
1074.92,1.64809,472558.0,10626
1078.63,1.62699,474087.0,11191
1082.35,1.63768,476569.0,10976
1086.06,1.63789,479445.0,11037
1089.76,1.65953,481756.0,10551
1093.46,1.65926,485147.0,10632
1098.39,1.6508,489755.0,10944
1102.08,1.6371,493535.0,11382
1105.77,1.65467,497426.0,11017
1109.45,1.6421,501308.0,11429
1113.13,1.6591,505725.0,11087
1116.8,1.653499,509421.0,11313
1120.47,1.66568,513217.0,11082
1124.13,1.66208,517470.0,11267
1127.79,1.65232,521690.0,11617
1131.45,1.66336,526099.0,11421
1136.32,1.65744,531329.0,11693
1139.96,1.67285,535549.0,11375
1143.61,1.66228,539808.0,11748
1147.24,1.69216,543900.0,11050
1150.88,1.69163,547908.0,11145
1154.5,1.70238,552170.0,10957
1158.13,1.71407,556773.0,10755
1161.75,1.73385,561098.0,10356
1165.36,1.74363,565898.0,10212
1168.98,1.76741,571300.0,9760
1172.58,1.75462,576602.0,10145
1177.39,1.76717,584320.0,9988
1180.98,1.78615,589396.0,9644
1184.58,1.77936,596143.0,9908
1188.16,1.78791,602955.0,9826
1191.75,1.82484,609704.0,9126
1195.33,1.82944,617215.0,9141
1198.9,1.8537,624471.0,8746
1202.48,1.867,632472.0,8591
1206.04,1.87779,640381.0,8485
1209.61,1.92802,648161.0,7650
1214.35,1.91743,659999.0,7982
1217.9,1.90281,668609.0,8363
1221.45,1.90554,677405.0,8420
1224.99,1.872903,686281.0,9196
1228.53,1.85331,695317.0,9747
1232.07,1.82771,704063.0,10469
1235.6,1.80633,713007.0,11137
1239.13,1.78412,721330.0,11858
1242.65,1.791238,730030.0,11806
1246.17,1.77383,737591.0,12416
1250.85,1.74714,746809.0,13368
1254.36,1.75053,753336.0,13380
1257.86,1.74337,759907.0,13721
1261.36,1.74629,766538.0,13748
1264.86,1.7531,774802.0,13680
1268.35,1.721,784025.0,14905
1271.83,1.73756,794336.0,14536
1275.32,1.7455,804198.0,14450
1278.79,1.72761,813836.0,15238
1282.27,1.74244,823595.0,14903
1286.89,1.74666,834533.0,14955
1290.36,1.73871,842581.0,15378
1293.81,1.73266,849301.0,15718
1297.27,1.73123,856026.0,15895
1300.72,1.734006,862498.0,15913
1304.17,1.72966,868068.0,16177
1307.61,1.74248,872869.0,15793
1311.05,1.72883,877616.0,16386
1314.48,1.72874,881872.0,16469
1317.91,1.73533,885520.0,16288
1322.47,1.73854,888917.0,16230
1325.89,1.736615,891687.0,16353
1329.31,1.73079,894001.0,16617
1332.72,1.73547,895438.0,16465
1336.12,1.73809,896641.0,16388
1339.52,1.73475,897974.0,16539
1342.92,1.73496,898777.0,16546
1346.31,1.73211,898783.0,16655
1349.7,1.74142,898350.0,16294
1353.09,1.74371,896784.0,16180
1357.59,1.74484,895293.0,16111
1360.97,1.73706,892755.0,16356
1364.34,1.75127,890430.0,15788
1367.7,1.76796,888504.0,15160
1371.06,1.75949,885825.0,15412
1374.42,1.77135,881046.0,14916
1377.77,1.79123,874030.0,14135
1381.12,1.80258,865751.0,13640
1384.47,1.80177,857799.0,13540
1387.81,1.86039,851759.0,11747
1392.25,1.86723,846500.0,11492
1395.58,1.86349,843622.0,11552
1398.91,1.86391,841228.0,11508
1402.23,1.84046,838489.0,12107
1405.55,1.85898,836065.0,11568
1408.86,1.85389,834396.0,11681
1412.17,1.88295,832187.0,10896
1415.47,1.87637,830123.0,11035
1418.77,1.877556,828244.0,10980
1422.07,1.89438,827314.0,10551
1426.45,1.87665,826435.0,10979
1429.74,1.88103,825475.0,10856
1433.02,1.87975,824938.0,10881
1436.29,1.88056,823959.0,10848
1439.57,1.87122,823822.0,11082
1442.83,1.848575,823184.0,11666
1446.1,1.85223,821953.0,11551
1449.36,1.8396,821135.0,11880
1452.61,1.85032,819413.0,11566
1455.86,1.83679,817492.0,11904
1459.11,1.83674,814862.0,11867
1463.43,1.84678,811075.0,11542
1466.67,1.84046,807671.0,11662
1469.9,1.82504,803699.0,12024
1473.13,1.82203,799396.0,12043
1476.35,1.81337,795129.0,12220
1479.57,1.81409,790127.0,12123
1482.78,1.81396,784937.0,12047
1486,1.80784,779544.0,12134
1489.2,1.80241,773733.0,12195
1492.4,1.80638,767463.0,11986
1496.67,1.78927,758614.0,12324
1499.86,1.80784,751802.0,11702
1503.04,1.79635,744297.0,11896
1506.23,1.791319,735980.0,11900
1509.41,1.79882,728040.0,11570
1512.58,1.79038,719703.0,11662
1515.75,1.78958,710982.0,11542
1518.92,1.79667,702409.0,11218
1522.08,1.804759,693280.0,10868
1525.24,1.79815,683935.0,10886
1529.44,1.798185,671492.0,10687
1532.59,1.80428,661352.0,10379
1535.73,1.81144,650841.0,10047
1538.87,1.81122,640156.0,9887
1542,1.80851,629036.0,9776
1545.13,1.81664,617445.0,9418
1548.26,1.79964,605527.0,9605
1551.38,1.78266,594133.0,9800
1554.49,1.78318,582894.0,9603
1557.61,1.79353,571271.0,9190
1561.75,1.78977,555940.0,9021
1564.85,1.793049,544812.0,8774
1567.95,1.7849,533402.0,8753
1571.05,1.773611,521915.0,8790
1574.14,1.77077,510788.0,8659
1577.22,1.77244,499607.0,8437
1580.3,1.78581,487992.0,7991
1583.38,1.76456,476265.0,8190
1586.45,1.77295,464618.0,7837
1589.52,1.78789,452782.0,7379
1593.6,1.76468,436897.0,7511
1596.66,1.76569,425551.0,7299
1599.71,1.78405,414191.0,6810
1602.76,1.78207,402799.0,6653
1605.81,1.777987,391352.0,6525
1608.85,1.77263,380811.0,6428
1611.89,1.77026,370076.0,6281
1614.92,1.78594,359798.0,5890
1617.95,1.77766,349165.0,5826
1620.97,1.755393,338717.0,5949
1624.99,1.75835,325435.0,5677
1628.01,1.80128,315463.0,4985
1631.02,1.77305,305570.0,5153
1634.02,1.75947,295762.0,5146
1637.02,1.78335,286306.0,4715
1640.02,1.77408,276696.0,4655
1643.01,1.811726,267004.0,4119
1646,1.77878,257531.0,4286
1648.98,1.76944,247817.0,4214
1651.96,1.7698,238547.0,4053
1655.93,1.7633,225092.0,3882
1658.89,1.76307,214425.0,3700
1661.86,1.81213,202241.0,3117
1664.82,1.7732,188046.0,3170
1667.78,1.78218,171566.0,2833
1670.73,1.8395,154101.0,2230
1673.67,1.68735,134892.0,2771
1676.62,1.70571,115325.0,2271
1679.56,1.77254,97255.0,1642
1682.49,1.79564,81017.0,1297
1686.4,1.695371,63571.0,1282
1689.32,1.61394,53566.0,1303
1692.24,1.73263,45493.0,842
1695.16,2.09793,39217.0,313
1698.07,1.7073,33537.0,658
1700.97,1.77131,29118.0,493

File: HDPE4_Column 1_20211229_164125.csv
***Scan Config Information***,,,,,,,***Reference Scan Information***,,,,,,,,
Scan Config Name:,Column 1,,,,,,Scan Config Name:,Built-in Factory Reference,,,,,,
Scan Config Type:,Slew,Num Section:,1,,,,Scan Config Type:,Slew,Num Section:,1,,,,,
Section Config Type:,Column,,,,,,Section Config Type:,Column,,,,,,,
Start Wavelength (nm):,900,,,,,,Start Wavelength (nm):,900.0,,,,,,
End Wavelength (nm):,1700,,,,,,End Wavelength (nm):,1700.0,,,,,,
Pattern Width (nm):,7.03,,,,,,Pattern Width (nm):,7.03,,,,,,,
Exposure (ms):,0.635,,,,,,Exposure (ms):,0.635,,,,,,,
Digital Resolution:,228,,,,,,Digital Resolution:,228,,,,,,,
Num Repeats:,6,,,,,,Num Repeats:,30,,,,,,,
PGA Gain:,64,,,,,,PGA Gain:,64,,,,,,
System Temp (C):,25.71,,,,,,System Temp (C):,24.17,,,,,,,
Humidity (%):,36.34,,,,,,Humidity (%):,30.0,,,,,,
Battery Capacity (%):,75,,,,,,Lamp Intensity:,2449,,,,,,,
Lamp Intensity:,2527,,,,,,Data Date-Time:,19/12/12T12:44:54,,,,,,
Data Date-Time:,18/1/1T7:10:44,,,,,,,,,,,,,,
Total Measurement Time in sec:,5.296,,,,,,,,,,,,,
***General Information***,,,,,,,***Calibration Coefficients***,,,,,,,,
Model Name:,NIR-S-G1,,,,,,Shift Vector Coefficients:,-8.44101,0.0554567,-8.45244e-05,,,,,
Serial Number:,947R055,95UB122GC0A947R055,,,,,Pixel to Wavelength Coefficients:,1795.87,-0.92014,-0.00023961,,,,,
APP Version:,2.16.7,,,,,,,,,,,,,
TIVA Version:,2.4.4,,,,,,***Lamp Usage * **,,,,,,,,
UUID:,de:67:c:88:67:2c:2d:21,,,,,,Total Time(HH:MM:SS):,11min 31sec ,,,,,,,
Main Board Version:,D,,,,,,***Device/Error Status***,,,,,,,,
Detector Board Version:,B,,,,,,Device Status:,0x00000031,,,,,,
,,,,,,,Error status:,0x00000000,Error Code:,0x00000000000000000000000000000000,,,,,
,,,,,,,,,Error Details:,Not Found,,,,,
***Scan Data***,,,,,,,,,,,,,,,
Wavelength (nm),Absorbance (AU),Reference Signal (unitless),Sample Signal (unitless)
901.841,1.32289,99968.0,4753
905.754,1.32754,108993.0,5127
909.663,1.3132,118185.0,5746
913.568,1.34827,129285.0,5798
917.469,1.35891,143347.0,6273
921.365,1.37152,160437.0,6820
925.257,1.37294,180387.0,7643
929.144,1.37782,201426.0,8439
933.028,1.38265,220694.0,9144
936.906,1.37924,237501.0,9918
942.072,1.358629,256956.0,11252
945.94,1.36076,270636.0,11793
949.805,1.35189,283621.0,12614
953.665,1.33801,296982.0,13637
957.521,1.33809,310733.0,14266
961.373,1.352396,324587.0,14419
965.22,1.3522,339205.0,15075
969.063,1.3366,353669.0,16293
972.902,1.355,368253.0,16261
976.736,1.35501,382531.0,16891
981.842,1.35452,399901.0,17678
985.666,1.36335,411528.0,17826
989.486,1.36399,422199.0,18261
993.302,1.360539,431172.0,18798
997.113,1.36999,438051.0,18687
1000.92,1.36355,444216.0,19233
1004.72,1.36638,449307.0,19327
1008.52,1.36533,453601.0,19559
1012.32,1.36416,456801.0,19750
1016.11,1.3746,459312.0,19387
1021.15,1.36859,461643.0,19757
1024.93,1.37912,463069.0,19343
1028.71,1.37498,463868.0,19562
1032.48,1.3857,464326.0,19104
1036.24,1.39513,466001.0,18761
1040.01,1.384472,466870.0,19263
1043.77,1.387383,467033.0,19141
1047.52,1.39428,467045.0,18840
1051.27,1.40108,467467.0,18564
1055.01,1.39546,467627.0,18812
1060,1.39651,468351.0,18796
1063.74,1.39785,469050.0,18766
1067.47,1.39339,469880.0,18993
1071.19,1.39304,471228.0,19063
1074.92,1.40104,472558.0,18768
1078.63,1.40128,474087.0,18818
1082.35,1.401664,476569.0,18900
1086.06,1.40792,479445.0,18742
1089.76,1.41299,481756.0,18614
1093.46,1.415987,485147.0,18616
1098.39,1.414184,489755.0,18871
1102.08,1.40233,493535.0,19543
1105.77,1.40924,497426.0,19386
1109.45,1.41626,501308.0,19224
1113.13,1.41148,505725.0,19608
1116.8,1.42031,509421.0,19354
1120.47,1.4104,513217.0,19948
1124.13,1.41709,517470.0,19806
1127.79,1.40636,521690.0,20467
1131.45,1.41112,526099.0,20415
1136.32,1.42997,531329.0,19742
1139.96,1.42353,535549.0,20196
1143.61,1.43669,539808.0,19749
1147.24,1.437059,543900.0,19882
1150.88,1.44029,547908.0,19880
1154.5,1.4482,552170.0,19673
1158.13,1.45877,556773.0,19360
1161.75,1.47606,561098.0,18749
1165.36,1.49863,565898.0,17952
1168.98,1.484628,571300.0,18717
1172.58,1.49267,576602.0,18544
1177.39,1.51039,584320.0,18041
1180.98,1.52556,589396.0,17573
1184.58,1.52779,596143.0,17683
1188.16,1.54554,602955.0,17169
1191.75,1.55306,609704.0,17063
1195.33,1.57469,617215.0,16434
1198.9,1.58213,624471.0,16345
1202.48,1.60711,632472.0,15629
1206.04,1.6428,640381.0,14576
1209.61,1.656985,648161.0,14279
1214.35,1.660578,659999.0,14420
1217.9,1.66699,668609.0,14394
1221.45,1.63556,677405.0,15678
1224.99,1.61841,686281.0,16523
1228.53,1.59028,695317.0,17861
1232.07,1.56429,704063.0,19201
1235.6,1.55193,713007.0,20006
1239.13,1.53047,721330.0,21265
1242.65,1.52199,730030.0,21946
1246.17,1.51527,737591.0,22519
1250.85,1.50464,746809.0,23365
1254.36,1.509,753336.0,23334
1257.86,1.49583,759907.0,24262
1261.36,1.4975,766538.0,24380
1264.86,1.49301,774802.0,24899
1268.35,1.48878,784025.0,25442
1271.83,1.48232,794336.0,26163
1275.32,1.48966,804198.0,26044
1278.79,1.4886,813836.0,26420
1282.27,1.48698,823595.0,26837
1286.89,1.48137,834533.0,27547
1290.36,1.48661,842581.0,27479
1293.81,1.4843,849301.0,27846
1297.27,1.48142,856026.0,28253
1300.72,1.48244,862498.0,28400
1304.17,1.47922,868068.0,28796
1307.61,1.48661,872869.0,28467
1311.05,1.48418,877616.0,28782
1314.48,1.48597,881872.0,28803
1317.91,1.48918,885520.0,28709
1322.47,1.4853,888917.0,29078
1325.89,1.48572,891687.0,29140
1329.31,1.487669,894001.0,29085
1332.72,1.492221,895438.0,28828
1336.12,1.48545,896641.0,29320
1339.52,1.48576,897974.0,29343
1342.92,1.48819,898777.0,29205
1346.31,1.48642,898783.0,29325
1349.7,1.49638,898350.0,28646
1353.09,1.49761,896784.0,28515
1357.59,1.48624,895293.0,29223
1360.97,1.50169,892755.0,28122
1364.34,1.50171,890430.0,28047
1367.7,1.50704,888504.0,27645
1371.06,1.51737,885825.0,26914
1374.42,1.52688,881046.0,26189
1377.77,1.53621,874030.0,25428
1381.12,1.54881,865751.0,24467
1384.47,1.57423,857799.0,22864
1387.81,1.5945,851759.0,21668
1392.25,1.61027,846500.0,20766
1395.58,1.62136,843622.0,20174
1398.91,1.61164,841228.0,20572
1402.23,1.59661,838489.0,21227
1405.55,1.60547,836065.0,20738
1408.86,1.61317,834396.0,20333
1412.17,1.62159,832187.0,19890
1415.47,1.62935,830123.0,19489
1418.77,1.62966,828244.0,19431
1422.07,1.62866,827314.0,19454
1426.45,1.62784,826435.0,19470
1429.74,1.625,825475.0,19575
1433.02,1.619011,824938.0,19834
1436.29,1.62641,823959.0,19476
1439.57,1.6172,823822.0,19890
1442.83,1.60948,823184.0,20231
1446.1,1.60193,821953.0,20555
1449.36,1.60063,821135.0,20596
1452.61,1.59983,819413.0,20591
1455.86,1.5998,817492.0,20544
1459.11,1.588059,814862.0,21039
1463.43,1.57989,811075.0,21339
1466.67,1.58238,807671.0,21128
1469.9,1.57106,803699.0,21579
1473.13,1.56913,799396.0,21559
1476.35,1.5645,795129.0,21674
1479.57,1.55769,790127.0,21878
1482.78,1.55184,784937.0,22029
1486,1.55364,779544.0,21787
1489.2,1.54831,773733.0,21892
1492.4,1.54465,767463.0,21898
1496.67,1.5544,758614.0,21165
1499.86,1.54924,751802.0,21226
1503.04,1.54308,744297.0,21314
1506.23,1.55039,735980.0,20724
1509.41,1.54738,728040.0,20643
1512.58,1.55258,719703.0,20164
1515.75,1.562292,710982.0,19479
1518.92,1.551573,702409.0,19725
1522.08,1.546112,693280.0,19715
1525.24,1.55303,683935.0,19142
1529.44,1.54621,671492.0,19091
1532.59,1.5534,661352.0,18494
1535.73,1.55017,650841.0,18336
1538.87,1.56887,640156.0,17275
1542,1.57205,629036.0,16851
1545.13,1.560175,617445.0,16999
1548.26,1.56004,605527.0,16676
1551.38,1.56204,594133.0,16287
1554.49,1.548132,582894.0,16499
1557.61,1.55023,571271.0,16092
1561.75,1.54725,555940.0,15768
1564.85,1.5393,544812.0,15738
1567.95,1.5459,533402.0,15176
1571.05,1.54931,521915.0,14733
1574.14,1.537627,510788.0,14812
1577.22,1.54039,499607.0,14396
1580.3,1.53671,487992.0,14181
1583.38,1.54594,476265.0,13549
1586.45,1.54794,464618.0,13157
1589.52,1.54902,452782.0,12790
1593.6,1.5458,436897.0,12433
1596.66,1.53781,425551.0,12335
1599.71,1.54078,414191.0,11924
1602.76,1.55367,402799.0,11257
1605.81,1.54486,391352.0,11161
1608.85,1.54536,380811.0,10848
1611.89,1.541962,370076.0,10625
1614.92,1.55437,359798.0,10039
1617.95,1.54915,349165.0,9860
1620.97,1.558886,338717.0,9353
1624.99,1.56927,325435.0,8774
1628.01,1.54254,315463.0,9045
1631.02,1.55031,305570.0,8606
1634.02,1.54486,295762.0,8435
1637.02,1.53624,286306.0,8329
1640.02,1.586908,276696.0,7163
1643.01,1.565342,267004.0,7264
1646,1.54828,257531.0,7287
1648.98,1.57105,247817.0,6654
1651.96,1.56748,238547.0,6458
1655.93,1.54442,225092.0,6426
1658.89,1.5633,214425.0,5861
1661.86,1.586041,202241.0,5246
1664.82,1.56686,188046.0,5098
1667.78,1.55737,171566.0,4754
1670.73,1.55911,154101.0,4253
1673.67,1.54171,134892.0,3875
1676.62,1.55677,115325.0,3200
1679.56,1.60626,97255.0,2408
1682.49,1.56497,81017.0,2206
1686.4,1.50857,63571.0,1971
1689.32,1.64862,53566.0,1203
1692.24,1.44789,45493.0,1622
1695.16,1.57477,39217.0,1044
1698.07,1.543253,33537.0,960
1700.97,1.750671,29118.0,517