Folder: Dorgan_Laubach_Research/Data/HDPE (part 8)

File: HDPE15_Column 1_20211229_230232.csv
***Scan Config Information***,,,,,,,***Reference Scan Information***,,,,,,,,
Scan Config Name:,Column 1,,,,,,Scan Config Name:,Built-in Factory Reference,,,,,,
Scan Config Type:,Slew,Num Section:,1,,,,Scan Config Type:,Slew,Num Section:,1,,,,,
Section Config Type:,Column,,,,,,Section Config Type:,Column,,,,,,,
Start Wavelength (nm):,900,,,,,,Start Wavelength (nm):,900.0,,,,,,
End Wavelength (nm):,1700,,,,,,End Wavelength (nm):,1700.0,,,,,,
Pattern Width (nm):,7.03,,,,,,Pattern Width (nm):,7.03,,,,,,,
Exposure (ms):,0.635,,,,,,Exposure (ms):,0.635,,,,,,,
Digital Resolution:,228,,,,,,Digital Resolution:,228,,,,,,,
Num Repeats:,6,,,,,,Num Repeats:,30,,,,,,,
PGA Gain:,64,,,,,,PGA Gain:,64,,,,,,
System Temp (C):,19.71,,,,,,System Temp (C):,24.17,,,,,,,
Humidity (%):,38.64,,,,,,Humidity (%):,30.0,,,,,,
Battery Capacity (%):,69,,,,,,Lamp Intensity:,2449,,,,,,,
Lamp Intensity:,2443,,,,,,Data Date-Time:,19/12/12T12:44:54,,,,,,
Data Date-Time:,18/1/1T7:1:31,,,,,,,,,,,,,,
Total Measurement Time in sec:,4.41,,,,,,,,,,,,,
***General Information***,,,,,,,***Calibration Coefficients***,,,,,,,,
Model Name:,NIR-S-G1,,,,,,Shift Vector Coefficients:,-8.44101,0.0554567,-8.45244e-05,,,,,
Serial Number:,947R055,95UB122GC0A947R055,,,,,Pixel to Wavelength Coefficients:,1795.87,-0.92014,-0.00023961,,,,,
APP Version:,2.16.7,,,,,,,,,,,,,
TIVA Version:,2.4.4,,,,,,***Lamp Usage * **,,,,,,,,
UUID:,de:67:c:88:67:2c:2d:21,,,,,,Total Time(HH:MM:SS):,11min 55sec ,,,,,,,
Main Board Version:,D,,,,,,***Device/Error Status***,,,,,,,,
Detector Board Version:,B,,,,,,Device Status:,0x00000031,,,,,,
,,,,,,,Error status:,0x00000000,Error Code:,0x00000000000000000000000000000000,,,,,
,,,,,,,,,Error Details:,Not Found,,,,,
***Scan Data***,,,,,,,,,,,,,,,
Wavelength (nm),Absorbance (AU),Reference Signal (unitless),Sample Signal (unitless)
901.841,1.48505,99968.0,3272
905.754,1.3737,108993.0,4610
909.663,1.47872,118185.0,3925
913.568,1.48439,129285.0,4238
917.469,1.54605,143347.0,4077
921.365,1.49705,160437.0,5108
925.257,1.4718,180387.0,6087
929.144,1.48149,201426.0,6647
933.028,1.51179,220694.0,6792
936.906,1.47881,237501.0,7886
942.072,1.47024,256956.0,8702
945.94,1.47306,270636.0,9106
949.805,1.47074,283621.0,9594
953.665,1.46188,296982.0,10253
957.521,1.440502,310733.0,11269
961.373,1.4646,324587.0,11136
965.22,1.47048,339205.0,11481
969.063,1.47889,353669.0,11741
972.902,1.4784,368253.0,12239
976.736,1.476884,382531.0,12758
981.842,1.468,399901.0,13613
985.666,1.47054,411528.0,13927
989.486,1.463431,422199.0,14524
993.302,1.45778,431172.0,15027
997.113,1.474296,438051.0,14697
1000.92,1.4773,444216.0,14801
1004.72,1.48099,449307.0,14844
1008.52,1.49238,453601.0,14598
1012.32,1.48288,456801.0,15026
1016.11,1.46957,459312.0,15579
1021.15,1.49138,461643.0,14891
1024.93,1.49733,463069.0,14734
1028.71,1.49493,463868.0,14841
1032.48,1.49169,464326.0,14967
1036.24,1.48529,466001.0,15244
1040.01,1.50538,466870.0,14582
1043.77,1.50517,467033.0,14594
1047.52,1.49623,467045.0,14898
1051.27,1.49838,467467.0,14838
1055.01,1.50046,467627.0,14772
1060,1.50577,468351.0,14615
1063.74,1.50343,469050.0,14716
1067.47,1.50734,469880.0,14610
1071.19,1.50733,471228.0,14652
1074.92,1.52156,472558.0,14220
1078.63,1.49959,474087.0,15006
1082.35,1.51348,476569.0,14610
1086.06,1.51153,479445.0,14764
1089.76,1.52212,481756.0,14478
1093.46,1.51688,485147.0,14757
1098.39,1.52189,489755.0,14726
1102.08,1.50868,493535.0,15298
1105.77,1.52267,497426.0,14930
1109.45,1.518061,501308.0,15207
1113.13,1.50663,505725.0,15750
1116.8,1.51877,509421.0,15428
1120.47,1.52233,513217.0,15416
1124.13,1.52543,517470.0,15433
1127.79,1.51188,521690.0,16052
1131.45,1.52514,526099.0,15701
1136.32,1.53635,531329.0,15453
1139.96,1.52637,535549.0,15938
1143.61,1.54076,539808.0,15541
1147.24,1.55123,543900.0,15286
1150.88,1.54228,547908.0,15719
1154.5,1.55747,552170.0,15297
1158.13,1.56679,556773.0,15097
1161.75,1.57626,561098.0,14886
1165.36,1.5894,565898.0,14566
1168.98,1.58804,571300.0,14751
1172.58,1.59828,576602.0,14541
1177.39,1.600665,584320.0,14655
1180.98,1.62742,589396.0,13899
1184.58,1.63209,596143.0,13908
1188.16,1.63478,602955.0,13980
1191.75,1.63191,609704.0,14230
1195.33,1.66789,617215.0,13260
1198.9,1.672576,624471.0,13272
1202.48,1.689846,632472.0,12918
1206.04,1.701,640381.0,12748
1209.61,1.70819,648161.0,12691
1214.35,1.73769,659999.0,12074
1217.9,1.72308,668609.0,12650
1221.45,1.70853,677405.0,13253
1224.99,1.69096,686281.0,13981
1228.53,1.67274,695317.0,14772
1232.07,1.64978,704063.0,15770
1235.6,1.64592,713007.0,16113
1239.13,1.63241,721330.0,16816
1242.65,1.62189,730030.0,17436
1246.17,1.61146,737591.0,18045
1250.85,1.59468,746809.0,18990
1254.36,1.61036,753336.0,18477
1257.86,1.59712,759907.0,19215
1261.36,1.58754,766538.0,19815
1264.86,1.59119,774802.0,19861
1268.35,1.60205,784025.0,19601
1271.83,1.58515,794336.0,20647
1275.32,1.58644,804198.0,20841
1278.79,1.584652,813836.0,21178
1282.27,1.5896,823595.0,21189
1286.89,1.58691,834533.0,21604
1290.36,1.59281,842581.0,21518
1293.81,1.58359,849301.0,22155
1297.27,1.593,856026.0,21852
1300.72,1.58968,862498.0,22186
1304.17,1.59536,868068.0,22039
1307.61,1.58749,872869.0,22566
1311.05,1.585789,877616.0,22778
1314.48,1.58421,881872.0,22972
1317.91,1.58767,885520.0,22884
1322.47,1.58259,888917.0,23242
1325.89,1.58228,891687.0,23331
1329.31,1.59742,894001.0,22590
1332.72,1.585818,895438.0,23239
1336.12,1.59038,896641.0,23027
1339.52,1.59341,897974.0,22901
1342.92,1.59446,898777.0,22866
1346.31,1.59388,898783.0,22897
1349.7,1.59719,898350.0,22712
1353.09,1.59281,896784.0,22902
1357.59,1.5876,895293.0,23140
1360.97,1.58712,892755.0,23100
1364.34,1.60605,890430.0,22057
1367.7,1.618672,888504.0,21379
1371.06,1.615435,885825.0,21474
1374.42,1.62241,881046.0,21018
1377.77,1.63003,874030.0,20488
1381.12,1.64421,865751.0,19642
1384.47,1.66643,857799.0,18491
1387.81,1.67819,851759.0,17870
1392.25,1.69258,846500.0,17181
1395.58,1.694398,843622.0,17051
1398.91,1.69849,841228.0,16843
1402.23,1.68205,838489.0,17436
1405.55,1.69263,836065.0,16967
1408.86,1.684835,834396.0,17240
1412.17,1.696258,832187.0,16748
1415.47,1.70837,830123.0,16247
1418.77,1.7088,828244.0,16194
1422.07,1.69534,827314.0,16685
1426.45,1.69857,826435.0,16544
1429.74,1.6998,825475.0,16478
1433.02,1.69587,824938.0,16617
1436.29,1.71062,823959.0,16043
1439.57,1.69291,823822.0,16708
1442.83,1.696594,823184.0,16554
1446.1,1.70322,821953.0,16279
1449.36,1.68491,821135.0,16963
1452.61,1.678227,819413.0,17190
1455.86,1.670962,817492.0,17439
1459.11,1.677048,814862.0,17141
1463.43,1.66523,811075.0,17532
1466.67,1.66407,807671.0,17505
1469.9,1.66444,803699.0,17404
1473.13,1.65232,799396.0,17801
1476.35,1.65251,795129.0,17698
1479.57,1.64999,790127.0,17689
1482.78,1.6372,784937.0,18098
1486,1.64704,779544.0,17571
1489.2,1.651,773733.0,17282
1492.4,1.64105,767463.0,17539
1496.67,1.6336,758614.0,17637
1499.86,1.64017,751802.0,17216
1503.04,1.64486,744297.0,16861
1506.23,1.63136,735980.0,17199
1509.41,1.630915,728040.0,17031
1512.58,1.645926,719703.0,16264
1515.75,1.63823,710982.0,16354
1518.92,1.63374,702409.0,16325
1522.08,1.63861,693280.0,15933
1525.24,1.64508,683935.0,15486
1529.44,1.63595,671492.0,15527
1532.59,1.63996,661352.0,15152
1535.73,1.65064,650841.0,14549
1538.87,1.63614,640156.0,14796
1542,1.64804,629036.0,14146
1545.13,1.64887,617445.0,13859
1548.26,1.63532,605527.0,14022
1551.38,1.63561,594133.0,13749
1554.49,1.634356,582894.0,13528
1557.61,1.63055,571271.0,13375
1561.75,1.63212,555940.0,12969
1564.85,1.63491,544812.0,12628
1567.95,1.63828,533402.0,12268
1571.05,1.64289,521915.0,11877
1574.14,1.630074,510788.0,11972
1577.22,1.63148,499607.0,11672
1580.3,1.61513,487992.0,11838
1583.38,1.62026,476265.0,11418
1586.45,1.62903,464618.0,10916
1589.52,1.64267,452782.0,10309
1593.6,1.62674,436897.0,10319
1596.66,1.61271,425551.0,10381
1599.71,1.61946,414191.0,9948
1602.76,1.63358,402799.0,9365
1605.81,1.618655,391352.0,9417
1608.85,1.62238,380811.0,9085
1611.89,1.63268,370076.0,8622
1614.92,1.62905,359798.0,8453
1617.95,1.65278,349165.0,7767
1620.97,1.61873,338717.0,8149
1624.99,1.63222,325435.0,7590
1628.01,1.64011,315463.0,7225
1631.02,1.64231,305570.0,6963
1634.02,1.63354,295762.0,6877
1637.02,1.64152,286306.0,6536
1640.02,1.62174,276696.0,6611
1643.01,1.62863,267004.0,6279
1646,1.653054,257531.0,5725
1648.98,1.64968,247817.0,5552
1651.96,1.629541,238547.0,5598
1655.93,1.65522,225092.0,4979
1658.89,1.66541,214425.0,4633
1661.86,1.64104,202241.0,4622
1664.82,1.67745,188046.0,3952
1667.78,1.63433,171566.0,3982
1670.73,1.74423,154101.0,2777
1673.67,1.78855,134892.0,2195
1676.62,1.73785,115325.0,2109
1679.56,1.78871,97255.0,1582
1682.49,1.99582,81017.0,818
1686.4,1.76266,63571.0,1098
1689.32,1.73282,53566.0,991
1692.24,1.71396,45493.0,879
1695.16,1.890183,39217.0,505
1698.07,2.11728,33537.0,256
1700.97,2.064488,29118.0,251

File: HDPE16_Column 1_20211229_230248.csv
***Scan Config Information***,,,,,,,***Reference Scan Information***,,,,,,,,
Scan Config Name:,Column 1,,,,,,Scan Config Name:,Built-in Factory Reference,,,,,,
Scan Config Type:,Slew,Num Section:,1,,,,Scan Config Type:,Slew,Num Section:,1,,,,,
Section Config Type:,Column,,,,,,Section Config Type:,Column,,,,,,,
Start Wavelength (nm):,900,,,,,,Start Wavelength (nm):,900.0,,,,,,
End Wavelength (nm):,1700,,,,,,End Wavelength (nm):,1700.0,,,,,,
Pattern Width (nm):,7.03,,,,,,Pattern Width (nm):,7.03,,,,,,,
Exposure (ms):,0.635,,,,,,Exposure (ms):,0.635,,,,,,,
Digital Resolution:,228,,,,,,Digital Resolution:,228,,,,,,,
Num Repeats:,6,,,,,,Num Repeats:,30,,,,,,,
PGA Gain:,64,,,,,,PGA Gain:,64,,,,,,
System Temp (C):,19.99,,,,,,System Temp (C):,24.17,,,,,,,
Humidity (%):,38.62,,,,,,Humidity (%):,30.0,,,,,,
Battery Capacity (%):,68,,,,,,Lamp Intensity:,2449,,,,,,,
Lamp Intensity:,2447,,,,,,Data Date-Time:,19/12/12T12:44:54,,,,,,
Data Date-Time:,18/1/1T7:1:46,,,,,,,,,,,,,,
Total Measurement Time in sec:,5.392,,,,,,,,,,,,,
***General Information***,,,,,,,***Calibration Coefficients***,,,,,,,,
Model Name:,NIR-S-G1,,,,,,Shift Vector Coefficients:,-8.44101,0.0554567,-8.45244e-05,,,,,
Serial Number:,947R055,95UB122GC0A947R055,,,,,Pixel to Wavelength Coefficients:,1795.87,-0.92014,-0.00023961,,,,,
APP Version:,2.16.7,,,,,,,,,,,,,
TIVA Version:,2.4.4,,,,,,***Lamp Usage * **,,,,,,,,
UUID:,de:67:c:88:67:2c:2d:21,,,,,,Total Time(HH:MM:SS):,11min 57sec ,,,,,,,
Main Board Version:,D,,,,,,***Device/Error Status***,,,,,,,,
Detector Board Version:,B,,,,,,Device Status:,0x00000031,,,,,,
,,,,,,,Error status:,0x00000000,Error Code:,0x00000000000000000000000000000000,,,,,
,,,,,,,,,Error Details:,Not Found,,,,,
***Scan Data***,,,,,,,,,,,,,,,
Wavelength (nm),Absorbance (AU),Reference Signal (unitless),Sample Signal (unitless)
901.841,1.48972,99968.0,3237
905.754,1.50439,108993.0,3412
909.663,1.49461,118185.0,3784
913.568,1.46583,129285.0,4423
917.469,1.49552,143347.0,4580
921.365,1.49476,160437.0,5135
925.257,1.52454,180387.0,5391
929.144,1.50223,201426.0,6337
933.028,1.50299,220694.0,6931
936.906,1.51157,237501.0,7313
942.072,1.49726,256956.0,8177
945.94,1.504041,270636.0,8479
949.805,1.48763,283621.0,9228
953.665,1.48587,296982.0,9702
957.521,1.48247,310733.0,10231
961.373,1.48382,324587.0,10654
965.22,1.47314,339205.0,11411
969.063,1.50078,353669.0,11164
972.902,1.48621,368253.0,12021
976.736,1.49863,382531.0,12135
981.842,1.49668,399901.0,12743
985.666,1.488593,411528.0,13360
989.486,1.49705,422199.0,13442
993.302,1.4819,431172.0,14215
997.113,1.49642,438051.0,13967
1000.92,1.49998,444216.0,14048
1004.72,1.49751,449307.0,14290
1008.52,1.50583,453601.0,14153
1012.32,1.49472,456801.0,14622
1016.11,1.50626,459312.0,14317
1021.15,1.51413,461643.0,14131
1024.93,1.51921,463069.0,14010
1028.71,1.50764,463868.0,14413
1032.48,1.5072,464326.0,14442
1036.24,1.51929,466001.0,14096
1040.01,1.512768,466870.0,14336
1043.77,1.51798,467033.0,14170
1047.52,1.50886,467045.0,14471
1051.27,1.53246,467467.0,13718
1055.01,1.52312,467627.0,14021
1060,1.52531,468351.0,13972
1063.74,1.50854,469050.0,14544
1067.47,1.52151,469880.0,14141
1071.19,1.51076,471228.0,14537
1074.92,1.51854,472558.0,14319
1078.63,1.52143,474087.0,14270
1082.35,1.52795,476569.0,14131
1086.06,1.53158,479445.0,14098
1089.76,1.532132,481756.0,14148
1093.46,1.53487,485147.0,14158
1098.39,1.5347,489755.0,14298
1102.08,1.53604,493535.0,14364
1105.77,1.53828,497426.0,14403
1109.45,1.54538,501308.0,14280
1113.13,1.527939,505725.0,14996
1116.8,1.54326,509421.0,14582
1120.47,1.53732,513217.0,14893
1124.13,1.54707,517470.0,14683
1127.79,1.54536,521690.0,14861
1131.45,1.53994,526099.0,15175
1136.32,1.54567,531329.0,15125
1139.96,1.55294,535549.0,14992
1143.61,1.55217,539808.0,15138
1147.24,1.56611,543900.0,14771
1150.88,1.57716,547908.0,14506
1154.5,1.57523,552170.0,14684
1158.13,1.5835,556773.0,14527
1161.75,1.59715,561098.0,14187
1165.36,1.5935,565898.0,14429
1168.98,1.60274,571300.0,14260
1172.58,1.6136,576602.0,14037
1177.39,1.62096,584320.0,13986
1180.98,1.634734,589396.0,13667
1184.58,1.64618,596143.0,13464
1188.16,1.65922,602955.0,13215
1191.75,1.67514,609704.0,12882
1195.33,1.67466,617215.0,13055
1198.9,1.70951,624471.0,12190
1202.48,1.713118,632472.0,12244
1206.04,1.73489,640381.0,11791
1209.61,1.760376,648161.0,11254
1214.35,1.74718,659999.0,11813
1217.9,1.758213,668609.0,11667
1221.45,1.73106,677405.0,12583
1224.99,1.719065,686281.0,13105
1228.53,1.7023,695317.0,13800
1232.07,1.68219,704063.0,14636
1235.6,1.66114,713007.0,15558
1239.13,1.649236,721330.0,16177
1242.65,1.64229,730030.0,16636
1246.17,1.630649,737591.0,17265
1250.85,1.61888,746809.0,17961
1254.36,1.61172,753336.0,18419
1257.86,1.61627,759907.0,18386
1261.36,1.61486,766538.0,18607
1264.86,1.61441,774802.0,18827
1268.35,1.612,784025.0,19157
1271.83,1.60384,794336.0,19777
1275.32,1.62292,804198.0,19162
1278.79,1.61125,813836.0,19920
1282.27,1.60659,823595.0,20376
1286.89,1.605767,834533.0,20686
1290.36,1.620712,842581.0,20179
1293.81,1.60676,849301.0,21004
1297.27,1.61549,856026.0,20749
1300.72,1.6038,862498.0,21476
1304.17,1.59511,868068.0,22052
1307.61,1.60891,872869.0,21480
1311.05,1.61024,877616.0,21531
1314.48,1.60949,881872.0,21673
1317.91,1.59907,885520.0,22291
1322.47,1.61232,888917.0,21704
1325.89,1.60854,891687.0,21962
1329.31,1.60899,894001.0,21996
1332.72,1.61223,895438.0,21868
1336.12,1.61291,896641.0,21863
1339.52,1.61159,897974.0,21962
1342.92,1.60759,898777.0,22185
1346.31,1.61258,898783.0,21932
1349.7,1.61787,898350.0,21656
1353.09,1.61531,896784.0,21746
1357.59,1.62062,895293.0,21446
1360.97,1.63084,892755.0,20888
1364.34,1.63114,890430.0,20819
1367.7,1.62928,888504.0,20863
1371.06,1.63778,885825.0,20397
1374.42,1.63782,881046.0,20285
1377.77,1.65386,874030.0,19394
1381.12,1.67071,865751.0,18479
1384.47,1.68133,857799.0,17867
1387.81,1.70426,851759.0,16829
1392.25,1.72389,846500.0,15986
1395.58,1.72593,843622.0,15857
1398.91,1.71561,841228.0,16192
1402.23,1.71414,838489.0,16194
1405.55,1.70721,836065.0,16407
1408.86,1.71213,834396.0,16190
1412.17,1.73482,832187.0,15325
1415.47,1.74014,830123.0,15101
1418.77,1.73697,828244.0,15177
1422.07,1.73526,827314.0,15220
1426.45,1.74008,826435.0,15036
1429.74,1.72972,825475.0,15381
1433.02,1.72791,824938.0,15435
1436.29,1.74045,823959.0,14978
1439.57,1.7257,823822.0,15493
1442.83,1.72318,823184.0,15571
1446.1,1.71389,821953.0,15884
1449.36,1.71504,821135.0,15826
1452.61,1.71408,819413.0,15828
1455.86,1.70701,817492.0,16050
1459.11,1.69376,814862.0,16494
1463.43,1.69263,811075.0,16460
1466.67,1.69441,807671.0,16324
1469.9,1.69355,803699.0,16276
1473.13,1.67914,799396.0,16735
1476.35,1.680068,795129.0,16610
1479.57,1.67613,790127.0,16656
1482.78,1.67669,784937.0,16525
1486,1.66998,779544.0,16667
1489.2,1.67034,773733.0,16529
1492.4,1.6738,767463.0,16265
1496.67,1.66746,758614.0,16314
1499.86,1.66592,751802.0,16225
1503.04,1.66942,744297.0,15934
1506.23,1.66629,735980.0,15870
1509.41,1.668363,728040.0,15624
1512.58,1.65524,719703.0,15919
1515.75,1.67961,710982.0,14868
1518.92,1.6602,702409.0,15360
1522.08,1.66098,693280.0,15133
1525.24,1.67413,683935.0,14484
1529.44,1.683,671492.0,13933
1532.59,1.67297,661352.0,14043
1535.73,1.66054,650841.0,14221
1538.87,1.673866,640156.0,13565
1542,1.67748,629036.0,13219
1545.13,1.66482,617445.0,13359
1548.26,1.66301,605527.0,13156
1551.38,1.66279,594133.0,12915
1554.49,1.6665,582894.0,12563
1557.61,1.65976,571271.0,12505
1561.75,1.64843,555940.0,12491
1564.85,1.65975,544812.0,11926
1567.95,1.66013,533402.0,11666
1571.05,1.662298,521915.0,11358
1574.14,1.663505,510788.0,11085
1577.22,1.6557,499607.0,11039
1580.3,1.64258,487992.0,11113
1583.38,1.67121,476265.0,10154
1586.45,1.64748,464618.0,10462
1589.52,1.65724,452782.0,9969
1593.6,1.64663,436897.0,9857
1596.66,1.65916,425551.0,9328
1599.71,1.64246,414191.0,9435
1602.76,1.64533,402799.0,9115
1605.81,1.64484,391352.0,8866
1608.85,1.61877,380811.0,9161
1611.89,1.65252,370076.0,8237
1614.92,1.65059,359798.0,8044
1617.95,1.675799,349165.0,7366
1620.97,1.639416,338717.0,7770
1624.99,1.65956,325435.0,7127
1628.01,1.66288,315463.0,6856
1631.02,1.65139,305570.0,6819
1634.02,1.64864,295762.0,6642
1637.02,1.65317,286306.0,6363
1640.02,1.656175,276696.0,6107
1643.01,1.64909,267004.0,5990
1646,1.67699,257531.0,5418
1648.98,1.63757,247817.0,5709
1651.96,1.64898,238547.0,5353
1655.93,1.6704,225092.0,4808
1658.89,1.67961,214425.0,4484
1661.86,1.68751,202241.0,4153
1664.82,1.66853,188046.0,4034
1667.78,1.72215,171566.0,3253
1670.73,1.71476,154101.0,2972
1673.67,1.67545,134892.0,2848
1676.62,1.737024,115325.0,2113
1679.56,1.778129,97255.0,1621
1682.49,1.74096,81017.0,1471
1686.4,1.71976,63571.0,1212
1689.32,1.77561,53566.0,898
1692.24,1.80425,45493.0,714
1695.16,1.61575,39217.0,950
1698.07,1.75837,33537.0,585
1700.97,1.744,29118.0,525