Folder: Dorgan_Laubach_Research/Data/HDPE (part 4)

File: HDPE7_Column 1_20211229_164211.csv
***Scan Config Information***,,,,,,,***Reference Scan Information***,,,,,,,,
Scan Config Name:,Column 1,,,,,,Scan Config Name:,Built-in Factory Reference,,,,,,
Scan Config Type:,Slew,Num Section:,1,,,,Scan Config Type:,Slew,Num Section:,1,,,,,
Section Config Type:,Column,,,,,,Section Config Type:,Column,,,,,,,
Start Wavelength (nm):,900,,,,,,Start Wavelength (nm):,900.0,,,,,,
End Wavelength (nm):,1700,,,,,,End Wavelength (nm):,1700.0,,,,,,
Pattern Width (nm):,7.03,,,,,,Pattern Width (nm):,7.03,,,,,,,
Exposure (ms):,0.635,,,,,,Exposure (ms):,0.635,,,,,,,
Digital Resolution:,228,,,,,,Digital Resolution:,228,,,,,,,
Num Repeats:,6,,,,,,Num Repeats:,30,,,,,,,
PGA Gain:,64,,,,,,PGA Gain:,64,,,,,,
System Temp (C):,26.3,,,,,,System Temp (C):,24.17,,,,,,,
Humidity (%):,36.9,,,,,,Humidity (%):,30.0,,,,,,
Battery Capacity (%):,74,,,,,,Lamp Intensity:,2449,,,,,,,
Lamp Intensity:,2537,,,,,,Data Date-Time:,19/12/12T12:44:54,,,,,,
Data Date-Time:,18/1/1T7:11:27,,,,,,,,,,,,,,
Total Measurement Time in sec:,8.139,,,,,,,,,,,,,
***General Information***,,,,,,,***Calibration Coefficients***,,,,,,,,
Model Name:,NIR-S-G1,,,,,,Shift Vector Coefficients:,-8.44101,0.0554567,-8.45244e-05,,,,,
Serial Number:,947R055,95UB122GC0A947R055,,,,,Pixel to Wavelength Coefficients:,1795.87,-0.92014,-0.00023961,,,,,
APP Version:,2.16.7,,,,,,,,,,,,,
TIVA Version:,2.4.4,,,,,,***Lamp Usage * **,,,,,,,,
UUID:,de:67:c:88:67:2c:2d:21,,,,,,Total Time(HH:MM:SS):,11min 37sec ,,,,,,,
Main Board Version:,D,,,,,,***Device/Error Status***,,,,,,,,
Detector Board Version:,B,,,,,,Device Status:,0x00000031,,,,,,
,,,,,,,Error status:,0x00000000,Error Code:,0x00000000000000000000000000000000,,,,,
,,,,,,,,,Error Details:,Not Found,,,,,
***Scan Data***,,,,,,,,,,,,,,,
Wavelength (nm),Absorbance (AU),Reference Signal (unitless),Sample Signal (unitless)
901.841,1.52725,99968.0,2969
905.754,1.52166,108993.0,3279
909.663,1.50636,118185.0,3683
913.568,1.53984,129285.0,3730
917.469,1.58097,143347.0,3762
921.365,1.56522,160437.0,4366
925.257,1.57154,180387.0,4838
929.144,1.56218,201426.0,5520
933.028,1.60366,220694.0,5497
936.906,1.60195,237501.0,5939
942.072,1.60449,256956.0,6388
945.94,1.57193,270636.0,7252
949.805,1.55992,283621.0,7813
953.665,1.5722,296982.0,7953
957.521,1.57757,310733.0,8219
961.373,1.568183,324587.0,8773
965.22,1.55872,339205.0,9370
969.063,1.55844,353669.0,9776
972.902,1.56312,368253.0,10070
976.736,1.58497,382531.0,9947
981.842,1.556473,399901.0,11104
985.666,1.57801,411528.0,10874
989.486,1.57669,422199.0,11190
993.302,1.57813,431172.0,11390
997.113,1.56303,438051.0,11981
1000.92,1.58947,444216.0,11432
1004.72,1.57376,449307.0,11989
1008.52,1.5845,453601.0,11808
1012.32,1.58429,456801.0,11897
1016.11,1.58173,459312.0,12033
1021.15,1.5888,461643.0,11899
1024.93,1.59046,463069.0,11890
1028.71,1.6159,463868.0,11233
1032.48,1.61144,464326.0,11360
1036.24,1.62514,466001.0,11047
1040.01,1.61157,466870.0,11419
1043.77,1.6187,467033.0,11237
1047.52,1.61089,467045.0,11441
1051.27,1.62287,467467.0,11140
1055.01,1.59979,467627.0,11752
1060,1.61332,468351.0,11409
1063.74,1.62034,469050.0,11243
1067.47,1.6246,469880.0,11153
1071.19,1.63144,471228.0,11010
1074.92,1.63188,472558.0,11030
1078.63,1.62668,474087.0,11199
1082.35,1.62965,476569.0,11181
1086.06,1.63082,479445.0,11218
1089.76,1.6174,481756.0,11626
1093.46,1.62157,485147.0,11596
1098.39,1.62113,489755.0,11718
1102.08,1.6214,493535.0,11801
1105.77,1.62592,497426.0,11771
1109.45,1.65143,501308.0,11186
1113.13,1.63931,505725.0,11604
1116.8,1.62347,509421.0,12123
1120.47,1.63761,513217.0,11822
1124.13,1.63695,517470.0,11938
1127.79,1.63859,521690.0,11990
1131.45,1.63464,526099.0,12202
1136.32,1.63387,531329.0,12345
1139.96,1.661059,535549.0,11688
1143.61,1.65724,539808.0,11885
1147.24,1.65692,543900.0,11984
1150.88,1.66152,547908.0,11945
1154.5,1.676493,552170.0,11630
1158.13,1.70666,556773.0,10940
1161.75,1.70955,561098.0,10952
1165.36,1.72254,565898.0,10720
1168.98,1.72192,571300.0,10838
1172.58,1.73011,576602.0,10734
1177.39,1.74812,584320.0,10436
1180.98,1.77671,589396.0,9856
1184.58,1.74849,596143.0,10638
1188.16,1.77241,602955.0,10183
1191.75,1.77567,609704.0,10220
1195.33,1.78273,617215.0,10179
1198.9,1.81948,624471.0,9463
1202.48,1.84038,632472.0,9134
1206.04,1.86752,640381.0,8688
1209.61,1.87427,648161.0,8658
1214.35,1.89269,659999.0,8450
1217.9,1.87838,668609.0,8847
1221.45,1.86678,677405.0,9206
1224.99,1.843154,686281.0,9848
1228.53,1.7978,695317.0,11076
1232.07,1.79342,704063.0,11329
1235.6,1.79017,713007.0,11559
1239.13,1.76095,721330.0,12508
1242.65,1.75064,730030.0,12963
1246.17,1.7324,737591.0,13659
1250.85,1.73611,746809.0,13712
1254.36,1.733724,753336.0,13908
1257.86,1.719752,759907.0,14488
1261.36,1.71281,766538.0,14850
1264.86,1.71411,774802.0,14965
1268.35,1.71841,784025.0,14994
1271.83,1.72368,794336.0,15008
1275.32,1.71199,804198.0,15609
1278.79,1.70493,813836.0,16055
1282.27,1.71233,823595.0,15973
1286.89,1.6889,834533.0,17082
1290.36,1.709,842581.0,16467
1293.81,1.71674,849301.0,16305
1297.27,1.711412,856026.0,16637
1300.72,1.72243,862498.0,16343
1304.17,1.71405,868068.0,16769
1307.61,1.70005,872869.0,17414
1311.05,1.7076,877616.0,17207
1314.48,1.69692,881872.0,17721
1317.91,1.70747,885520.0,17367
1322.47,1.70347,888917.0,17595
1325.89,1.70611,891687.0,17543
1329.31,1.7043,894001.0,17662
1332.72,1.70677,895438.0,17590
1336.12,1.71077,896641.0,17452
1339.52,1.71028,897974.0,17498
1342.92,1.70955,898777.0,17543
1346.31,1.713605,898783.0,17380
1349.7,1.70638,898350.0,17663
1353.09,1.72255,896784.0,16988
1357.59,1.71821,895293.0,17130
1360.97,1.72261,892755.0,16909
1364.34,1.7191,890430.0,17002
1367.7,1.74033,888504.0,16156
1371.06,1.74407,885825.0,15969
1374.42,1.75346,881046.0,15543
1377.77,1.77144,874030.0,14794
1381.12,1.78078,865751.0,14342
1384.47,1.795715,857799.0,13730
1387.81,1.81232,851759.0,13122
1392.25,1.847217,846500.0,12034
1395.58,1.83791,843622.0,12253
1398.91,1.82585,841228.0,12562
1402.23,1.83996,838489.0,12121
1405.55,1.83535,836065.0,12215
1408.86,1.83263,834396.0,12267
1412.17,1.83493,832187.0,12170
1415.47,1.84962,830123.0,11736
1418.77,1.84521,828244.0,11829
1422.07,1.85962,827314.0,11430
1426.45,1.84503,826435.0,11808
1429.74,1.839009,825475.0,11959
1433.02,1.847679,824938.0,11715
1436.29,1.84594,823959.0,11748
1439.57,1.84484,823822.0,11776
1442.83,1.83182,823184.0,12125
1446.1,1.81655,821953.0,12540
1449.36,1.81387,821135.0,12605
1452.61,1.82286,819413.0,12321
1455.86,1.80978,817492.0,12668
1459.11,1.79915,814862.0,12940
1463.43,1.809553,811075.0,12575
1466.67,1.79209,807671.0,13036
1469.9,1.79819,803699.0,12791
1473.13,1.77073,799396.0,13553
1476.35,1.77301,795129.0,13410
1479.57,1.77897,790127.0,13144
1482.78,1.7664,784937.0,13441
1486,1.7765,779544.0,13042
1489.2,1.77817,773733.0,12895
1492.4,1.75867,767463.0,13378
1496.67,1.76923,758614.0,12906
1499.86,1.76612,751802.0,12882
1503.04,1.76183,744297.0,12880
1506.23,1.7617,735980.0,12740
1509.41,1.76365,728040.0,12546
1512.58,1.76682,719703.0,12312
1515.75,1.77001,710982.0,12074
1518.92,1.76413,702409.0,12091
1522.08,1.77131,693280.0,11738
1525.24,1.77134,683935.0,11579
1529.44,1.7745,671492.0,11286
1532.59,1.77531,661352.0,11095
1535.73,1.7612,650841.0,11279
1538.87,1.76521,640156.0,10992
1542,1.80304,629036.0,9900
1545.13,1.76121,617445.0,10700
1548.26,1.773278,605527.0,10206
1551.38,1.76853,594133.0,10124
1554.49,1.78563,582894.0,9549
1557.61,1.76002,571271.0,9927
1561.75,1.76978,555940.0,9446
1564.85,1.75656,544812.0,9543
1567.95,1.7682,533402.0,9096
1571.05,1.74972,521915.0,9287
1574.14,1.754771,510788.0,8984
1577.22,1.74763,499607.0,8933
1580.3,1.7476,487992.0,8726
1583.38,1.73154,476265.0,8837
1586.45,1.74928,464618.0,8276
1589.52,1.73765,452782.0,8284
1593.6,1.760309,436897.0,7587
1596.66,1.7437,425551.0,7678
1599.71,1.75281,414191.0,7318
1602.76,1.74553,402799.0,7237
1605.81,1.75999,391352.0,6801
1608.85,1.73234,380811.0,7053
1611.89,1.73687,370076.0,6783
1614.92,1.73441,359798.0,6632
1617.95,1.72217,349165.0,6620
1620.97,1.75205,338717.0,5995
1624.99,1.73685,325435.0,5965
1628.01,1.73395,315463.0,5821
1631.02,1.76124,305570.0,5295
1634.02,1.73518,295762.0,5442
1637.02,1.78733,286306.0,4672
1640.02,1.74784,276696.0,4945
1643.01,1.752944,267004.0,4716
1646,1.75868,257531.0,4489
1648.98,1.78188,247817.0,4095
1651.96,1.75869,238547.0,4158
1655.93,1.74213,225092.0,4076
1658.89,1.78684,214425.0,3503
1661.86,1.74525,202241.0,3636
1664.82,1.74676,188046.0,3369
1667.78,1.78188,171566.0,2835
1670.73,1.72526,154101.0,2901
1673.67,1.69224,134892.0,2740
1676.62,1.75293,115325.0,2037
1679.56,1.7288,97255.0,1816
1682.49,1.67103,81017.0,1728
1686.4,1.7796,63571.0,1056
1689.32,1.61062,53566.0,1313
1692.24,1.86346,45493.0,623
1695.16,1.67387,39217.0,831
1698.07,1.6133,33537.0,817
1700.97,1.47918,29118.0,966

File: HDPE8_Column 1_20211229_164227.csv
***Scan Config Information***,,,,,,,***Reference Scan Information***,,,,,,,,
Scan Config Name:,Column 1,,,,,,Scan Config Name:,Built-in Factory Reference,,,,,,
Scan Config Type:,Slew,Num Section:,1,,,,Scan Config Type:,Slew,Num Section:,1,,,,,
Section Config Type:,Column,,,,,,Section Config Type:,Column,,,,,,,
Start Wavelength (nm):,900,,,,,,Start Wavelength (nm):,900.0,,,,,,
End Wavelength (nm):,1700,,,,,,End Wavelength (nm):,1700.0,,,,,,
Pattern Width (nm):,7.03,,,,,,Pattern Width (nm):,7.03,,,,,,,
Exposure (ms):,0.635,,,,,,Exposure (ms):,0.635,,,,,,,
Digital Resolution:,228,,,,,,Digital Resolution:,228,,,,,,,
Num Repeats:,6,,,,,,Num Repeats:,30,,,,,,,
PGA Gain:,64,,,,,,PGA Gain:,64,,,,,,
System Temp (C):,26.5,,,,,,System Temp (C):,24.17,,,,,,,
Humidity (%):,37.08,,,,,,Humidity (%):,30.0,,,,,,
Battery Capacity (%):,74,,,,,,Lamp Intensity:,2449,,,,,,,
Lamp Intensity:,2541,,,,,,Data Date-Time:,19/12/12T12:44:54,,,,,,
Data Date-Time:,18/1/1T7:11:44,,,,,,,,,,,,,,
Total Measurement Time in sec:,4.273,,,,,,,,,,,,,
***General Information***,,,,,,,***Calibration Coefficients***,,,,,,,,
Model Name:,NIR-S-G1,,,,,,Shift Vector Coefficients:,-8.44101,0.0554567,-8.45244e-05,,,,,
Serial Number:,947R055,95UB122GC0A947R055,,,,,Pixel to Wavelength Coefficients:,1795.87,-0.92014,-0.00023961,,,,,
APP Version:,2.16.7,,,,,,,,,,,,,
TIVA Version:,2.4.4,,,,,,***Lamp Usage * **,,,,,,,,
UUID:,de:67:c:88:67:2c:2d:21,,,,,,Total Time(HH:MM:SS):,11min 39sec ,,,,,,,
Main Board Version:,D,,,,,,***Device/Error Status***,,,,,,,,
Detector Board Version:,B,,,,,,Device Status:,0x00000031,,,,,,
,,,,,,,Error status:,0x00000000,Error Code:,0x00000000000000000000000000000000,,,,,
,,,,,,,,,Error Details:,Not Found,,,,,
***Scan Data***,,,,,,,,,,,,,,,
Wavelength (nm),Absorbance (AU),Reference Signal (unitless),Sample Signal (unitless)
901.841,1.38761,99968.0,4095
905.754,1.412498,108993.0,4216
909.663,1.37892,118185.0,4939
913.568,1.42056,129285.0,4909
917.469,1.42327,143347.0,5409
921.365,1.43652,160437.0,5872
925.257,1.44276,180387.0,6508
929.144,1.44192,201426.0,7281
933.028,1.45758,220694.0,7695
936.906,1.43232,237501.0,8777
942.072,1.42551,256956.0,9646
945.94,1.41344,270636.0,10446
949.805,1.41146,283621.0,10997
953.665,1.41946,296982.0,11305
957.521,1.408634,310733.0,12127
961.373,1.413588,324587.0,12524
965.22,1.41352,339205.0,13090
969.063,1.4068,353669.0,13861
972.902,1.40887,368253.0,14364
976.736,1.42797,382531.0,14279
981.842,1.42295,399901.0,15101
985.666,1.41654,411528.0,15771
989.486,1.42887,422199.0,15727
993.302,1.4169,431172.0,16510
997.113,1.426575,438051.0,16404
1000.92,1.43442,444216.0,16337
1004.72,1.42422,449307.0,16917
1008.52,1.43646,453601.0,16604
1012.32,1.43025,456801.0,16962
1016.11,1.44766,459312.0,16385
1021.15,1.44501,461643.0,16569
1024.93,1.45852,463069.0,16111
1028.71,1.453169,463868.0,16339
1032.48,1.449655,464326.0,16488
1036.24,1.45474,466001.0,16355
1040.01,1.455944,466870.0,16340
1043.77,1.44835,467033.0,16634
1047.52,1.46286,467045.0,16088
1051.27,1.47582,467467.0,15629
1055.01,1.46259,467627.0,16118
1060,1.46765,468351.0,15956
1063.74,1.47535,469050.0,15699
1067.47,1.46505,469880.0,16104
1071.19,1.458149,471228.0,16409
1074.92,1.45958,472558.0,16401
1078.63,1.469572,474087.0,16080
1082.35,1.47208,476569.0,16071
1086.06,1.47375,479445.0,16106
1089.76,1.48508,481756.0,15767
1093.46,1.46729,485147.0,16542
1098.39,1.47737,489755.0,16316
1102.08,1.47214,493535.0,16641
1105.77,1.473674,497426.0,16713
1109.45,1.48738,501308.0,16320
1113.13,1.48981,505725.0,16372
1116.8,1.4826,509421.0,16768
1120.47,1.50189,513217.0,16159
1124.13,1.4932,517470.0,16622
1127.79,1.49203,521690.0,16803
1131.45,1.500332,526099.0,16624
1136.32,1.49614,531329.0,16952
1139.96,1.49211,535549.0,17246
1143.61,1.505,539808.0,16875
1147.24,1.51421,543900.0,16646
1150.88,1.51144,547908.0,16876
1154.5,1.51855,552170.0,16731
1158.13,1.52988,556773.0,16436
1161.75,1.53547,561098.0,16352
1165.36,1.54897,565898.0,15987
1168.98,1.55881,571300.0,15778
1172.58,1.56611,576602.0,15659
1177.39,1.57072,584320.0,15701
1180.98,1.58481,589396.0,15332
1184.58,1.58907,596143.0,15356
1188.16,1.59415,602955.0,15351
1191.75,1.60608,609704.0,15102
1195.33,1.616115,617215.0,14939
1198.9,1.633157,624471.0,14533
1202.48,1.6589,632472.0,13872
1206.04,1.68092,640381.0,13351
1209.61,1.68953,648161.0,13248
1214.35,1.68927,659999.0,13498
1217.9,1.69144,668609.0,13606
1221.45,1.67703,677405.0,14250
1224.99,1.65512,686281.0,15184
1228.53,1.64391,695317.0,15786
1232.07,1.616652,704063.0,17020
1235.6,1.60297,713007.0,17788
1239.13,1.596657,721330.0,18259
1242.65,1.58358,730030.0,19044
1246.17,1.57196,737591.0,19763
1250.85,1.57118,746809.0,20046
1254.36,1.56001,753336.0,20748
1257.86,1.55949,759907.0,20954
1261.36,1.55998,766538.0,21113
1264.86,1.5573,774802.0,21473
1268.35,1.5552,784025.0,21834
1271.83,1.55691,794336.0,22034
1275.32,1.55091,804198.0,22618
1278.79,1.54945,813836.0,22966
1282.27,1.53684,823595.0,23926
1286.89,1.55437,834533.0,23285
1290.36,1.5568,842581.0,23378
1293.81,1.55345,849301.0,23747
1297.27,1.54556,856026.0,24374
1300.72,1.546592,862498.0,24500
1304.17,1.54157,868068.0,24945
1307.61,1.5432,872869.0,24989
1311.05,1.54955,877616.0,24760
1314.48,1.546962,881872.0,25029
1317.91,1.54642,885520.0,25164
1322.47,1.546617,888917.0,25249
1325.89,1.54304,891687.0,25537
1329.31,1.54266,894001.0,25626
1332.72,1.55722,895438.0,24821
1336.12,1.5479,896641.0,25393
1339.52,1.544956,897974.0,25604
1342.92,1.55448,898777.0,25071
1346.31,1.5553,898783.0,25024
1349.7,1.54795,898350.0,25439
1353.09,1.55339,896784.0,25078
1357.59,1.55596,895293.0,24889
1360.97,1.56475,892755.0,24321
1364.34,1.56848,890430.0,24050
1367.7,1.56747,888504.0,24054
1371.06,1.58022,885825.0,23288
1374.42,1.58327,881046.0,23000
1377.77,1.59379,874030.0,22271
1381.12,1.60421,865751.0,21537
1384.47,1.62024,857799.0,20566
1387.81,1.63127,851759.0,19909
1392.25,1.67168,846500.0,18028
1395.58,1.65384,843622.0,18720
1398.91,1.65449,841228.0,18639
1402.23,1.64855,838489.0,18834
1405.55,1.64541,836065.0,18916
1408.86,1.649,834396.0,18723
1412.17,1.66008,832187.0,18203
1415.47,1.66039,830123.0,18145
1418.77,1.6648,828244.0,17921
1422.07,1.66428,827314.0,17922
1426.45,1.66235,826435.0,17983
1429.74,1.67127,825475.0,17597
1433.02,1.65464,824938.0,18272
1436.29,1.66121,823959.0,17976
1439.57,1.65457,823822.0,18250
1442.83,1.66323,823184.0,17876
1446.1,1.64796,821953.0,18488
1449.36,1.64635,821135.0,18538
1452.61,1.63801,819413.0,18858
1455.86,1.64246,817492.0,18622
1459.11,1.63226,814862.0,19003
1463.43,1.6353,811075.0,18783
1466.67,1.627636,807671.0,19037
1469.9,1.62545,803699.0,19039
1473.13,1.6104,799396.0,19605
1476.35,1.60869,795129.0,19577
1479.57,1.60372,790127.0,19678
1482.78,1.60542,784937.0,19472
1486,1.605766,779544.0,19323
1489.2,1.60441,773733.0,19239
1492.4,1.59752,767463.0,19388
1496.67,1.60328,758614.0,18912
1499.86,1.59854,751802.0,18948
1503.04,1.59708,744297.0,18822
1506.23,1.59234,735980.0,18816
1509.41,1.59642,728040.0,18439
1512.58,1.5978,719703.0,18170
1515.75,1.60215,710982.0,17771
1518.92,1.59495,702409.0,17850
1522.08,1.5935,693280.0,17677
1525.24,1.59404,683935.0,17417
1529.44,1.59844,671492.0,16928
1532.59,1.607819,661352.0,16316
1535.73,1.6011,650841.0,16307
1538.87,1.61741,640156.0,15448
1542,1.60336,629036.0,15679
1545.13,1.60187,617445.0,15443
1548.26,1.59422,605527.0,15414
1551.38,1.58721,594133.0,15370
1554.49,1.60687,582894.0,14412
1557.61,1.58009,571271.0,15023
1561.75,1.58639,555940.0,14409
1564.85,1.59464,544812.0,13855
1567.95,1.58822,533402.0,13767
1571.05,1.57045,521915.0,14033
1574.14,1.581817,510788.0,13379
1577.22,1.57318,499607.0,13349
1580.3,1.58984,487992.0,12548
1583.38,1.58306,476265.0,12439
1586.45,1.58395,464618.0,12110
1589.52,1.58934,452782.0,11656
1593.6,1.58458,436897.0,11371
1596.66,1.58461,425551.0,11075
1599.71,1.56965,414191.0,11157
1602.76,1.58739,402799.0,10416
1605.81,1.57299,391352.0,10461
1608.85,1.58586,380811.0,9882
1611.89,1.5972,370076.0,9356
1614.92,1.58781,359798.0,9295
1617.95,1.59004,349165.0,8974
1620.97,1.58128,338717.0,8883
1624.99,1.57999,325435.0,8560
1628.01,1.59537,315463.0,8009
1631.02,1.58218,305570.0,7997
1634.02,1.59623,295762.0,7494
1637.02,1.583045,286306.0,7478
1640.02,1.58029,276696.0,7273
1643.01,1.597214,267004.0,6750
1646,1.5845,257531.0,6704
1648.98,1.56734,247817.0,6711
1651.96,1.60768,238547.0,5887
1655.93,1.58535,225092.0,5848
1658.89,1.60922,214425.0,5273
1661.86,1.58439,202241.0,5266
1664.82,1.58558,188046.0,4883
1667.78,1.63411,171566.0,3984
1670.73,1.57301,154101.0,4119
1673.67,1.60585,134892.0,3343
1676.62,1.57762,115325.0,3050
1679.56,1.57933,97255.0,2562
1682.49,1.56793,81017.0,2191
1686.4,1.51167,63571.0,1957
1689.32,1.54477,53566.0,1528
1692.24,1.56487,45493.0,1239
1695.16,1.54854,39217.0,1109
1698.07,1.655706,33537.0,741
1700.97,1.52916,29118.0,861