Folder: Dorgan_Laubach_Research/Data/HDPE (part 7)

File: HDPE13_Column 1_20211229_230203.csv
***Scan Config Information***,,,,,,,***Reference Scan Information***,,,,,,,,
Scan Config Name:,Column 1,,,,,,Scan Config Name:,Built-in Factory Reference,,,,,,
Scan Config Type:,Slew,Num Section:,1,,,,Scan Config Type:,Slew,Num Section:,1,,,,,
Section Config Type:,Column,,,,,,Section Config Type:,Column,,,,,,,
Start Wavelength (nm):,900,,,,,,Start Wavelength (nm):,900.0,,,,,,
End Wavelength (nm):,1700,,,,,,End Wavelength (nm):,1700.0,,,,,,
Pattern Width (nm):,7.03,,,,,,Pattern Width (nm):,7.03,,,,,,,
Exposure (ms):,0.635,,,,,,Exposure (ms):,0.635,,,,,,,
Digital Resolution:,228,,,,,,Digital Resolution:,228,,,,,,,
Num Repeats:,6,,,,,,Num Repeats:,30,,,,,,,
PGA Gain:,64,,,,,,PGA Gain:,64,,,,,,
System Temp (C):,19.09,,,,,,System Temp (C):,24.17,,,,,,,
Humidity (%):,38.74,,,,,,Humidity (%):,30.0,,,,,,
Battery Capacity (%):,70,,,,,,Lamp Intensity:,2449,,,,,,,
Lamp Intensity:,2434,,,,,,Data Date-Time:,19/12/12T12:44:54,,,,,,
Data Date-Time:,18/1/1T7:1:2,,,,,,,,,,,,,,
Total Measurement Time in sec:,4.393,,,,,,,,,,,,,
***General Information***,,,,,,,***Calibration Coefficients***,,,,,,,,
Model Name:,NIR-S-G1,,,,,,Shift Vector Coefficients:,-8.44101,0.0554567,-8.45244e-05,,,,,
Serial Number:,947R055,95UB122GC0A947R055,,,,,Pixel to Wavelength Coefficients:,1795.87,-0.92014,-0.00023961,,,,,
APP Version:,2.16.7,,,,,,,,,,,,,
TIVA Version:,2.4.4,,,,,,***Lamp Usage * **,,,,,,,,
UUID:,de:67:c:88:67:2c:2d:21,,,,,,Total Time(HH:MM:SS):,11min 50sec ,,,,,,,
Main Board Version:,D,,,,,,***Device/Error Status***,,,,,,,,
Detector Board Version:,B,,,,,,Device Status:,0x00000031,,,,,,
,,,,,,,Error status:,0x00000000,Error Code:,0x00000000000000000000000000000000,,,,,
,,,,,,,,,Error Details:,Not Found,,,,,
***Scan Data***,,,,,,,,,,,,,,,
Wavelength (nm),Absorbance (AU),Reference Signal (unitless),Sample Signal (unitless)
901.841,1.3179,99968.0,4808
905.754,1.31526,108993.0,5274
909.663,1.29268,118185.0,6024
913.568,1.33405,129285.0,5991
917.469,1.309866,143347.0,7023
921.365,1.33519,160437.0,7415
925.257,1.32475,180387.0,8540
929.144,1.325935,201426.0,9510
933.028,1.33917,220694.0,10107
936.906,1.319218,237501.0,11388
942.072,1.32243,256956.0,12230
945.94,1.32957,270636.0,12671
949.805,1.32479,283621.0,13426
953.665,1.31211,296982.0,14475
957.521,1.31235,310733.0,15137
961.373,1.30865,324587.0,15947
965.22,1.31718,339205.0,16341
969.063,1.32321,353669.0,16803
972.902,1.31136,368253.0,17980
976.736,1.32341,382531.0,18166
981.842,1.321693,399901.0,19066
985.666,1.32343,411528.0,19542
989.486,1.31553,422199.0,20417
993.302,1.33534,431172.0,19921
997.113,1.33172,438051.0,20408
1000.92,1.32389,444216.0,21072
1004.72,1.33513,449307.0,20769
1008.52,1.34251,453601.0,20614
1012.32,1.33547,456801.0,21099
1016.11,1.33105,459312.0,21432
1021.15,1.34372,461643.0,20921
1024.93,1.35031,463069.0,20670
1028.71,1.34513,463868.0,20954
1032.48,1.35182,464326.0,20654
1036.24,1.35763,466001.0,20453
1040.01,1.35323,466870.0,20700
1043.77,1.352455,467033.0,20744
1047.52,1.35608,467045.0,20572
1051.27,1.36556,467467.0,20146
1055.01,1.35591,467627.0,20606
1060,1.35677,468351.0,20597
1063.74,1.35263,469050.0,20825
1067.47,1.35749,469880.0,20630
1071.19,1.36526,471228.0,20322
1074.92,1.35537,472558.0,20849
1078.63,1.34848,474087.0,21251
1082.35,1.35833,476569.0,20883
1086.06,1.36188,479445.0,20838
1089.76,1.36894,481756.0,20601
1093.46,1.36087,485147.0,21135
1098.39,1.36598,489755.0,21086
1102.08,1.36912,493535.0,21096
1105.77,1.36705,497426.0,21364
1109.45,1.36563,501308.0,21601
1113.13,1.37476,505725.0,21338
1116.8,1.36739,509421.0,21862
1120.47,1.37336,513217.0,21724
1124.13,1.37227,517470.0,21959
1127.79,1.366835,521690.0,22417
1131.45,1.36673,526099.0,22612
1136.32,1.37681,531329.0,22313
1139.96,1.38137,535549.0,22255
1143.61,1.380791,539808.0,22462
1147.24,1.3855,543900.0,22388
1150.88,1.38761,547908.0,22444
1154.5,1.3914,552170.0,22422
1158.13,1.40399,556773.0,21963
1161.75,1.408793,561098.0,21890
1165.36,1.42105,565898.0,21463
1168.98,1.44058,571300.0,20715
1172.58,1.43458,576602.0,21198
1177.39,1.43903,584320.0,21263
1180.98,1.446413,589396.0,21086
1184.58,1.45373,596143.0,20971
1188.16,1.46035,602955.0,20890
1191.75,1.47428,609704.0,20457
1195.33,1.48756,617215.0,20085
1198.9,1.50888,624471.0,19348
1202.48,1.5216,632472.0,19030
1206.04,1.545485,640381.0,18237
1209.61,1.54862,648161.0,18326
1214.35,1.555718,659999.0,18358
1217.9,1.5541,668609.0,18667
1221.45,1.54475,677405.0,19324
1224.99,1.53255,686281.0,20135
1228.53,1.504504,695317.0,21761
1232.07,1.48743,704063.0,22918
1235.6,1.4718,713007.0,24060
1239.13,1.45844,721330.0,25101
1242.65,1.44863,730030.0,25984
1246.17,1.44682,737591.0,26363
1250.85,1.43708,746809.0,27298
1254.36,1.43539,753336.0,27644
1257.86,1.43429,759907.0,27956
1261.36,1.43624,766538.0,28073
1264.86,1.43424,774802.0,28507
1268.35,1.425643,784025.0,29423
1271.83,1.42233,794336.0,30038
1275.32,1.42758,804198.0,30046
1278.79,1.42124,813836.0,30853
1282.27,1.42608,823595.0,30877
1286.89,1.42373,834533.0,31457
1290.36,1.42446,842581.0,31707
1293.81,1.42455,849301.0,31953
1297.27,1.42054,856026.0,32505
1300.72,1.42295,862498.0,32569
1304.17,1.42076,868068.0,32945
1307.61,1.42375,872869.0,32900
1311.05,1.42573,877616.0,32929
1314.48,1.42576,881872.0,33086
1317.91,1.419285,885520.0,33722
1322.47,1.42423,888917.0,33468
1325.89,1.42813,891687.0,33272
1329.31,1.43088,894001.0,33148
1332.72,1.42491,895438.0,33661
1336.12,1.42553,896641.0,33658
1339.52,1.43265,897974.0,33160
1342.92,1.42717,898777.0,33611
1346.31,1.42602,898783.0,33700
1349.7,1.43069,898350.0,33324
1353.09,1.43274,896784.0,33109
1357.59,1.4305,895293.0,33225
1360.97,1.43614,892755.0,32703
1364.34,1.44204,890430.0,32178
1367.7,1.44458,888504.0,31921
1371.06,1.44918,885825.0,31490
1374.42,1.4556,881046.0,30860
1377.77,1.4641,874030.0,30021
1381.12,1.476871,865751.0,28875
1384.47,1.49073,857799.0,27711
1387.81,1.50472,851759.0,26644
1392.25,1.524661,846500.0,25291
1395.58,1.53094,843622.0,24843
1398.91,1.52484,841228.0,25123
1402.23,1.51568,838489.0,25575
1405.55,1.5115,836065.0,25748
1408.86,1.515,834396.0,25490
1412.17,1.52626,832187.0,24772
1415.47,1.53486,830123.0,24226
1418.77,1.531802,828244.0,24342
1422.07,1.53862,827314.0,23936
1426.45,1.539138,826435.0,23882
1429.74,1.533643,825475.0,24158
1433.02,1.52777,824938.0,24471
1436.29,1.525253,823959.0,24584
1439.57,1.52402,823822.0,24650
1442.83,1.5234,823184.0,24666
1446.1,1.52152,821953.0,24736
1449.36,1.5172,821135.0,24958
1452.61,1.50487,819413.0,25623
1455.86,1.50535,817492.0,25535
1459.11,1.50663,814862.0,25378
1463.43,1.49685,811075.0,25835
1466.67,1.5004,807671.0,25517
1469.9,1.48357,803699.0,26395
1473.13,1.48479,799396.0,26180
1476.35,1.48575,795129.0,25983
1479.57,1.48052,790127.0,26132
1482.78,1.476285,784937.0,26215
1486,1.47799,779544.0,25933
1489.2,1.47417,773733.0,25967
1492.4,1.47288,767463.0,25833
1496.67,1.47397,758614.0,25471
1499.86,1.467321,751802.0,25632
1503.04,1.46936,744297.0,25257
1506.23,1.46457,735980.0,25252
1509.41,1.464389,728040.0,24990
1512.58,1.46523,719703.0,24656
1515.75,1.465663,710982.0,24333
1518.92,1.46398,702409.0,24133
1522.08,1.4638,693280.0,23829
1525.24,1.47581,683935.0,22867
1529.44,1.4688,671492.0,22816
1532.59,1.4792,661352.0,21940
1535.73,1.471309,650841.0,21987
1538.87,1.47679,640156.0,21355
1542,1.47685,629036.0,20981
1545.13,1.470847,617445.0,20881
1548.26,1.46301,605527.0,20851
1551.38,1.47051,594133.0,20108
1554.49,1.46365,582894.0,20042
1557.61,1.46487,571271.0,19587
1561.75,1.46646,555940.0,18992
1564.85,1.45574,544812.0,19077
1567.95,1.46254,533402.0,18387
1571.05,1.46755,521915.0,17785
1574.14,1.45565,510788.0,17889
1577.22,1.45159,499607.0,17662
1580.3,1.46859,487992.0,16589
1583.38,1.45735,476265.0,16615
1586.45,1.45718,464618.0,16215
1589.52,1.46394,452782.0,15558
1593.6,1.46083,436897.0,15120
1596.66,1.45772,425551.0,14833
1599.71,1.46592,414191.0,14167
1602.76,1.45999,402799.0,13967
1605.81,1.46153,391352.0,13522
1608.85,1.46221,380811.0,13137
1611.89,1.45939,370076.0,12850
1614.92,1.459392,359798.0,12493
1617.95,1.46763,349165.0,11896
1620.97,1.46993,338717.0,11479
1624.99,1.48041,325435.0,10766
1628.01,1.4679,315463.0,10741
1631.02,1.45597,305570.0,10694
1634.02,1.46362,295762.0,10170
1637.02,1.47961,286306.0,9489
1640.02,1.47287,276696.0,9314
1643.01,1.47766,267004.0,8889
1646,1.4905,257531.0,8324
1648.98,1.45862,247817.0,8620
1651.96,1.46541,238547.0,8169
1655.93,1.49178,225092.0,7254
1658.89,1.47358,214425.0,7206
1661.86,1.524042,202241.0,6051
1664.82,1.48468,188046.0,6160
1667.78,1.539826,171566.0,4950
1670.73,1.54962,154101.0,4347
1673.67,1.5494,134892.0,3807
1676.62,1.55004,115325.0,3250
1679.56,1.56417,97255.0,2653
1682.49,1.55408,81017.0,2262
1686.4,1.5575,63571.0,1761
1689.32,1.50023,53566.0,1693
1692.24,1.44602,45493.0,1629
1695.16,1.62639,39217.0,927
1698.07,1.41899,33537.0,1278
1700.97,1.64858,29118.0,654

File: HDPE14_Column 1_20211229_230218.csv
***Scan Config Information***,,,,,,,***Reference Scan Information***,,,,,,,,
Scan Config Name:,Column 1,,,,,,Scan Config Name:,Built-in Factory Reference,,,,,,
Scan Config Type:,Slew,Num Section:,1,,,,Scan Config Type:,Slew,Num Section:,1,,,,,
Section Config Type:,Column,,,,,,Section Config Type:,Column,,,,,,,
Start Wavelength (nm):,900,,,,,,Start Wavelength (nm):,900.0,,,,,,
End Wavelength (nm):,1700,,,,,,End Wavelength (nm):,1700.0,,,,,,
Pattern Width (nm):,7.03,,,,,,Pattern Width (nm):,7.03,,,,,,,
Exposure (ms):,0.635,,,,,,Exposure (ms):,0.635,,,,,,,
Digital Resolution:,228,,,,,,Digital Resolution:,228,,,,,,,
Num Repeats:,6,,,,,,Num Repeats:,30,,,,,,,
PGA Gain:,64,,,,,,PGA Gain:,64,,,,,,
System Temp (C):,19.43,,,,,,System Temp (C):,24.17,,,,,,,
Humidity (%):,38.67,,,,,,Humidity (%):,30.0,,,,,,
Battery Capacity (%):,69,,,,,,Lamp Intensity:,2449,,,,,,,
Lamp Intensity:,2438,,,,,,Data Date-Time:,19/12/12T12:44:54,,,,,,
Data Date-Time:,18/1/1T7:1:18,,,,,,,,,,,,,,
Total Measurement Time in sec:,4.121,,,,,,,,,,,,,
***General Information***,,,,,,,***Calibration Coefficients***,,,,,,,,
Model Name:,NIR-S-G1,,,,,,Shift Vector Coefficients:,-8.44101,0.0554567,-8.45244e-05,,,,,
Serial Number:,947R055,95UB122GC0A947R055,,,,,Pixel to Wavelength Coefficients:,1795.87,-0.92014,-0.00023961,,,,,
APP Version:,2.16.7,,,,,,,,,,,,,
TIVA Version:,2.4.4,,,,,,***Lamp Usage * **,,,,,,,,
UUID:,de:67:c:88:67:2c:2d:21,,,,,,Total Time(HH:MM:SS):,11min 53sec ,,,,,,,
Main Board Version:,D,,,,,,***Device/Error Status***,,,,,,,,
Detector Board Version:,B,,,,,,Device Status:,0x00000031,,,,,,
,,,,,,,Error status:,0x00000000,Error Code:,0x00000000000000000000000000000000,,,,,
,,,,,,,,,Error Details:,Not Found,,,,,
***Scan Data***,,,,,,,,,,,,,,,
Wavelength (nm),Absorbance (AU),Reference Signal (unitless),Sample Signal (unitless)
901.841,1.3479,99968.0,4487
905.754,1.30013,108993.0,5461
909.663,1.31131,118185.0,5771
913.568,1.30259,129285.0,6441
917.469,1.294138,143347.0,7282
921.365,1.311321,160437.0,7834
925.257,1.32292,180387.0,8576
929.144,1.33275,201426.0,9362
933.028,1.34619,220694.0,9945
936.906,1.33183,237501.0,11062
942.072,1.30479,256956.0,12737
945.94,1.31818,270636.0,13008
949.805,1.32722,283621.0,13351
953.665,1.31002,296982.0,14545
957.521,1.313008,310733.0,15114
961.373,1.31394,324587.0,15754
965.22,1.31694,339205.0,16350
969.063,1.31907,353669.0,16964
972.902,1.3132,368253.0,17904
976.736,1.32353,382531.0,18161
981.842,1.3227,399901.0,19022
985.666,1.3176,411528.0,19806
989.486,1.334637,422199.0,19538
993.302,1.32666,431172.0,20323
997.113,1.33762,438051.0,20133
1000.92,1.32778,444216.0,20884
1004.72,1.32124,449307.0,21444
1008.52,1.33537,453601.0,20956
1012.32,1.33823,456801.0,20965
1016.11,1.33756,459312.0,21113
1021.15,1.33707,461643.0,21244
1024.93,1.34513,463069.0,20918
1028.71,1.35354,463868.0,20552
1032.48,1.35258,464326.0,20618
1036.24,1.35513,466001.0,20571
1040.01,1.356934,466870.0,20524
1043.77,1.3629,467033.0,20251
1047.52,1.35797,467045.0,20483
1051.27,1.36363,467467.0,20236
1055.01,1.35054,467627.0,20862
1060,1.355168,468351.0,20673
1063.74,1.36206,469050.0,20378
1067.47,1.35983,469880.0,20519
1071.19,1.36184,471228.0,20483
1074.92,1.35985,472558.0,20635
1078.63,1.36444,474087.0,20484
1082.35,1.36046,476569.0,20781
1086.06,1.36584,479445.0,20649
1089.76,1.36684,481756.0,20701
1093.46,1.362745,485147.0,21044
1098.39,1.36397,489755.0,21184
1102.08,1.37007,493535.0,21050
1105.77,1.3668,497426.0,21376
1109.45,1.3668,501308.0,21543
1113.13,1.37568,505725.0,21293
1116.8,1.371639,509421.0,21649
1120.47,1.37508,513217.0,21638
1124.13,1.36806,517470.0,22173
1127.79,1.37116,521690.0,22195
1131.45,1.38031,526099.0,21916
1136.32,1.38415,531329.0,21939
1139.96,1.38227,535549.0,22209
1143.61,1.38581,539808.0,22204
1147.24,1.38792,543900.0,22264
1150.88,1.38693,547908.0,22479
1154.5,1.40334,552170.0,21814
1158.13,1.4086,556773.0,21731
1161.75,1.42591,561098.0,21044
1165.36,1.43639,565898.0,20718
1168.98,1.43413,571300.0,21025
1172.58,1.43319,576602.0,21266
1177.39,1.44087,584320.0,21173
1180.98,1.4558,589396.0,20635
1184.58,1.4615,596143.0,20599
1188.16,1.46429,602955.0,20701
1191.75,1.48015,609704.0,20182
1195.33,1.4898,617215.0,19982
1198.9,1.51025,624471.0,19287
1202.48,1.529014,632472.0,18708
1206.04,1.54979,640381.0,18057
1209.61,1.55888,648161.0,17898
1214.35,1.56458,659999.0,17987
1217.9,1.56026,668609.0,18404
1221.45,1.55439,677405.0,18900
1224.99,1.53149,686281.0,20184
1228.53,1.50482,695317.0,21745
1232.07,1.49371,704063.0,22589
1235.6,1.4791,713007.0,23659
1239.13,1.46819,721330.0,24544
1242.65,1.45471,730030.0,25623
1246.17,1.453026,737591.0,25989
1250.85,1.4428,746809.0,26941
1254.36,1.43946,753336.0,27386
1257.86,1.43916,759907.0,27644
1261.36,1.43167,766538.0,28370
1264.86,1.42882,774802.0,28865
1268.35,1.43288,784025.0,28937
1271.83,1.430978,794336.0,29446
1275.32,1.42714,804198.0,30076
1278.79,1.43151,813836.0,30132
1282.27,1.42573,823595.0,30902
1286.89,1.42843,834533.0,31118
1290.36,1.43023,842581.0,31288
1293.81,1.43053,849301.0,31516
1297.27,1.4297,856026.0,31826
1300.72,1.42404,862498.0,32488
1304.17,1.4224,868068.0,32821
1307.61,1.42936,872869.0,32478
1311.05,1.42412,877616.0,33051
1314.48,1.42701,881872.0,32991
1317.91,1.42593,885520.0,33210
1322.47,1.43136,888917.0,32923
1325.89,1.42579,891687.0,33452
1329.31,1.43059,894001.0,33170
1332.72,1.43112,895438.0,33183
1336.12,1.42773,896641.0,33488
1339.52,1.43005,897974.0,33359
1342.92,1.42793,898777.0,33552
1346.31,1.43277,898783.0,33181
1349.7,1.4346,898350.0,33025
1353.09,1.43275,896784.0,33108
1357.59,1.43554,895293.0,32842
1360.97,1.43661,892755.0,32668
1364.34,1.44399,890430.0,32034
1367.7,1.44607,888504.0,31812
1371.06,1.45767,885825.0,30880
1374.42,1.45797,881046.0,30692
1377.77,1.46839,874030.0,29726
1381.12,1.47755,865751.0,28830
1384.47,1.49158,857799.0,27657
1387.81,1.51063,851759.0,26284
1392.25,1.53021,846500.0,24970
1395.58,1.53553,843622.0,24582
1398.91,1.5241,841228.0,25166
1402.23,1.51068,838489.0,25871
1405.55,1.52112,836065.0,25184
1408.86,1.5251,834396.0,24904
1412.17,1.53458,832187.0,24302
1415.47,1.54169,830123.0,23848
1418.77,1.54735,828244.0,23486
1422.07,1.53645,827314.0,24056
1426.45,1.53645,826435.0,24030
1429.74,1.53151,825475.0,24277
1433.02,1.52948,824938.0,24375
1436.29,1.53591,823959.0,23988
1439.57,1.53454,823822.0,24060
1442.83,1.52667,823184.0,24481
1446.1,1.52261,821953.0,24674
1449.36,1.51293,821135.0,25205
1452.61,1.51694,819413.0,24921
1455.86,1.511376,817492.0,25183
1459.11,1.50444,814862.0,25506
1463.43,1.5087,811075.0,25140
1466.67,1.50221,807671.0,25411
1469.9,1.49679,803699.0,25604
1473.13,1.49529,799396.0,25555
1476.35,1.485147,795129.0,26019
1479.57,1.48505,790127.0,25861
1482.78,1.48467,784937.0,25714
1486,1.48386,779544.0,25585
1489.2,1.473835,773733.0,25987
1492.4,1.47583,767463.0,25658
1496.67,1.47587,758614.0,25360
1499.86,1.47555,751802.0,25151
1503.04,1.48247,744297.0,24506
1506.23,1.475102,735980.0,24647
1509.41,1.47847,728040.0,24193
1512.58,1.46788,719703.0,24506
1515.75,1.47757,710982.0,23675
1518.92,1.47667,702409.0,23438
1522.08,1.48389,693280.0,22752
1525.24,1.47524,683935.0,22897
1529.44,1.48186,671492.0,22140
1532.59,1.48385,661352.0,21706
1535.73,1.48304,650841.0,21401
1538.87,1.48374,640156.0,21016
1542,1.48441,629036.0,20619
1545.13,1.48295,617445.0,20307
1548.26,1.47498,605527.0,20284
1551.38,1.47285,594133.0,20000
1554.49,1.47678,582894.0,19445
1557.61,1.47063,571271.0,19329
1561.75,1.46799,555940.0,18925
1564.85,1.468,544812.0,18546
1567.95,1.47326,533402.0,17939
1571.05,1.46601,521915.0,17848
1574.14,1.471,510788.0,17268
1577.22,1.47162,499607.0,16866
1580.3,1.46768,487992.0,16624
1583.38,1.46579,476265.0,16295
1586.45,1.46545,464618.0,15909
1589.52,1.46987,452782.0,15347
1593.6,1.47153,436897.0,14752
1596.66,1.45837,425551.0,14811
1599.71,1.4605,414191.0,14345
1602.76,1.47241,402799.0,13573
1605.81,1.466014,391352.0,13383
1608.85,1.46904,380811.0,12932
1611.89,1.45797,370076.0,12892
1614.92,1.45086,359798.0,12741
1617.95,1.45493,349165.0,12249
1620.97,1.46628,338717.0,11576
1624.99,1.46259,325435.0,11217
1628.01,1.47368,315463.0,10599
1631.02,1.468997,305570.0,10378
1634.02,1.45946,295762.0,10268
1637.02,1.46229,286306.0,9875
1640.02,1.46465,276696.0,9492
1643.01,1.4731,267004.0,8983
1646,1.46758,257531.0,8775
1648.98,1.48495,247817.0,8113
1651.96,1.47901,238547.0,7917
1655.93,1.4747,225092.0,7545
1658.89,1.49724,214425.0,6824
1661.86,1.45997,202241.0,7013
1664.82,1.4915,188046.0,6064
1667.78,1.52703,171566.0,5098
1670.73,1.5171,154101.0,4685
1673.67,1.4915,134892.0,4350
1676.62,1.5361,115325.0,3356
1679.56,1.62074,97255.0,2329
1682.49,1.60842,81017.0,1996
1686.4,1.58132,63571.0,1667
1689.32,1.49488,53566.0,1714
1692.24,1.563823,45493.0,1242
1695.16,1.55366,39217.0,1096
1698.07,1.44562,33537.0,1202
1700.97,1.66139,29118.0,635