Folder: Dorgan_Laubach_Research/Data/HDPE (part 9)

File: HDPE17_Column 1_20211229_230301.csv
***Scan Config Information***,,,,,,,***Reference Scan Information***,,,,,,,,
Scan Config Name:,Column 1,,,,,,Scan Config Name:,Built-in Factory Reference,,,,,,
Scan Config Type:,Slew,Num Section:,1,,,,Scan Config Type:,Slew,Num Section:,1,,,,,
Section Config Type:,Column,,,,,,Section Config Type:,Column,,,,,,,
Start Wavelength (nm):,900,,,,,,Start Wavelength (nm):,900.0,,,,,,
End Wavelength (nm):,1700,,,,,,End Wavelength (nm):,1700.0,,,,,,
Pattern Width (nm):,7.03,,,,,,Pattern Width (nm):,7.03,,,,,,,
Exposure (ms):,0.635,,,,,,Exposure (ms):,0.635,,,,,,,
Digital Resolution:,228,,,,,,Digital Resolution:,228,,,,,,,
Num Repeats:,6,,,,,,Num Repeats:,30,,,,,,,
PGA Gain:,64,,,,,,PGA Gain:,64,,,,,,
System Temp (C):,20.26,,,,,,System Temp (C):,24.17,,,,,,,
Humidity (%):,38.55,,,,,,Humidity (%):,30.0,,,,,,
Battery Capacity (%):,68,,,,,,Lamp Intensity:,2449,,,,,,,
Lamp Intensity:,2451,,,,,,Data Date-Time:,19/12/12T12:44:54,,,,,,
Data Date-Time:,18/1/1T7:2:1,,,,,,,,,,,,,,
Total Measurement Time in sec:,4.434,,,,,,,,,,,,,
***General Information***,,,,,,,***Calibration Coefficients***,,,,,,,,
Model Name:,NIR-S-G1,,,,,,Shift Vector Coefficients:,-8.44101,0.0554567,-8.45244e-05,,,,,
Serial Number:,947R055,95UB122GC0A947R055,,,,,Pixel to Wavelength Coefficients:,1795.87,-0.92014,-0.00023961,,,,,
APP Version:,2.16.7,,,,,,,,,,,,,
TIVA Version:,2.4.4,,,,,,***Lamp Usage * **,,,,,,,,
UUID:,de:67:c:88:67:2c:2d:21,,,,,,Total Time(HH:MM:SS):,11min 59sec ,,,,,,,
Main Board Version:,D,,,,,,***Device/Error Status***,,,,,,,,
Detector Board Version:,B,,,,,,Device Status:,0x00000031,,,,,,
,,,,,,,Error status:,0x00000000,Error Code:,0x00000000000000000000000000000000,,,,,
,,,,,,,,,Error Details:,Not Found,,,,,
***Scan Data***,,,,,,,,,,,,,,,
Wavelength (nm),Absorbance (AU),Reference Signal (unitless),Sample Signal (unitless)
901.841,1.49675,99968.0,3185
905.754,1.45329,108993.0,3838
909.663,1.46511,118185.0,4050
913.568,1.44167,129285.0,4676
917.469,1.47614,143347.0,4789
921.365,1.50115,160437.0,5060
925.257,1.52915,180387.0,5334
929.144,1.5034,201426.0,6320
933.028,1.48767,220694.0,7180
936.906,1.49795,237501.0,7546
942.072,1.52631,256956.0,7648
945.94,1.48309,270636.0,8898
949.805,1.47561,283621.0,9487
953.665,1.470348,296982.0,10055
957.521,1.48018,310733.0,10285
961.373,1.485,324587.0,10625
965.22,1.4901,339205.0,10974
969.063,1.46934,353669.0,12002
972.902,1.49082,368253.0,11894
976.736,1.49389,382531.0,12268
981.842,1.493929,399901.0,12824
985.666,1.4936,411528.0,13207
989.486,1.49557,422199.0,13488
993.302,1.49822,431172.0,13691
997.113,1.49354,438051.0,14060
1000.92,1.50508,444216.0,13884
1004.72,1.50068,449307.0,14186
1008.52,1.501095,453601.0,14308
1012.32,1.49344,456801.0,14665
1016.11,1.49773,459312.0,14601
1021.15,1.514072,461643.0,14133
1024.93,1.51238,463069.0,14232
1028.71,1.51807,463868.0,14071
1032.48,1.51705,464326.0,14118
1036.24,1.52487,466001.0,13916
1040.01,1.543227,466870.0,13365
1043.77,1.530319,467033.0,13773
1047.52,1.53162,467045.0,13732
1051.27,1.521426,467467.0,14071
1055.01,1.52723,467627.0,13889
1060,1.53319,468351.0,13721
1063.74,1.53339,469050.0,13735
1067.47,1.5453,469880.0,13387
1071.19,1.55079,471228.0,13257
1074.92,1.53993,472558.0,13631
1078.63,1.53287,474087.0,13899
1082.35,1.537335,476569.0,13829
1086.06,1.53334,479445.0,14041
1089.76,1.54348,481756.0,13783
1093.46,1.53854,485147.0,14039
1098.39,1.54982,489755.0,13809
1102.08,1.5494,493535.0,13929
1105.77,1.54383,497426.0,14220
1109.45,1.55684,501308.0,13908
1113.13,1.556671,505725.0,14036
1116.8,1.56135,509421.0,13987
1120.47,1.54857,513217.0,14512
1124.13,1.56571,517470.0,14066
1127.79,1.57008,521690.0,14039
1131.45,1.55916,526099.0,14518
1136.32,1.57027,531329.0,14292
1139.96,1.5727,535549.0,14325
1143.61,1.56753,539808.0,14612
1147.24,1.576614,543900.0,14418
1150.88,1.57534,547908.0,14567
1154.5,1.59483,552170.0,14036
1158.13,1.6057,556773.0,13803
1161.75,1.61537,561098.0,13604
1165.36,1.63663,565898.0,13065
1168.98,1.638,571300.0,13148
1172.58,1.64985,576602.0,12913
1177.39,1.65241,584320.0,13009
1180.98,1.65416,589396.0,13069
1184.58,1.674601,596143.0,12611
1188.16,1.67355,602955.0,12786
1191.75,1.67784,609704.0,12802
1195.33,1.70074,617215.0,12294
1198.9,1.73233,624471.0,11566
1202.48,1.72663,632472.0,11869
1206.04,1.76698,640381.0,10951
1209.61,1.77267,648161.0,10940
1214.35,1.79411,659999.0,10603
1217.9,1.76633,668609.0,11451
1221.45,1.76188,677405.0,11721
1224.99,1.73859,686281.0,12529
1228.53,1.72468,695317.0,13107
1232.07,1.70717,704063.0,13818
1235.6,1.68696,713007.0,14660
1239.13,1.66679,721330.0,15536
1242.65,1.66246,730030.0,15881
1246.17,1.65897,737591.0,16175
1250.85,1.640188,746809.0,17101
1254.36,1.64331,753336.0,17127
1257.86,1.65013,759907.0,17007
1261.36,1.63497,766538.0,17765
1264.86,1.6285,774802.0,18226
1268.35,1.63692,784025.0,18089
1271.83,1.62747,794336.0,18730
1275.32,1.62529,804198.0,19058
1278.79,1.61939,813836.0,19550
1282.27,1.6176,823595.0,19866
1286.89,1.622067,834533.0,19924
1290.36,1.62619,842581.0,19926
1293.81,1.61612,849301.0,20556
1297.27,1.63178,856026.0,19985
1300.72,1.627215,862498.0,20349
1304.17,1.63325,868068.0,20198
1307.61,1.63256,872869.0,20342
1311.05,1.62156,877616.0,20977
1314.48,1.61752,881872.0,21276
1317.91,1.61709,885520.0,21385
1322.47,1.62757,888917.0,20955
1325.89,1.62498,891687.0,21146
1329.31,1.62422,894001.0,21238
1332.72,1.625884,895438.0,21191
1336.12,1.623974,896641.0,21313
1339.52,1.62246,897974.0,21419
1342.92,1.62018,898777.0,21551
1346.31,1.621176,898783.0,21502
1349.7,1.62729,898350.0,21191
1353.09,1.62801,896784.0,21119
1357.59,1.63012,895293.0,20982
1360.97,1.63384,892755.0,20744
1364.34,1.63231,890430.0,20763
1367.7,1.63532,888504.0,20575
1371.06,1.64526,885825.0,20049
1374.42,1.66465,881046.0,19070
1377.77,1.65406,874030.0,19385
1381.12,1.667087,865751.0,18634
1384.47,1.69965,857799.0,17129
1387.81,1.71566,851759.0,16393
1392.25,1.74487,846500.0,15232
1395.58,1.74922,843622.0,15029
1398.91,1.7415,841228.0,15255
1402.23,1.71358,838489.0,16215
1405.55,1.72276,836065.0,15830
1408.86,1.72442,834396.0,15738
1412.17,1.72582,832187.0,15646
1415.47,1.74677,830123.0,14872
1418.77,1.753003,828244.0,14627
1422.07,1.741145,827314.0,15015
1426.45,1.74848,826435.0,14748
1429.74,1.740063,825475.0,15019
1433.02,1.74481,824938.0,14846
1436.29,1.73099,823959.0,15308
1439.57,1.721541,823822.0,15642
1442.83,1.74354,823184.0,14858
1446.1,1.72393,821953.0,15521
1449.36,1.717962,821135.0,15720
1452.61,1.71375,819413.0,15840
1455.86,1.70601,817492.0,16087
1459.11,1.713,814862.0,15779
1463.43,1.70816,811075.0,15882
1466.67,1.70434,807671.0,15955
1469.9,1.68371,803699.0,16649
1473.13,1.68612,799396.0,16468
1476.35,1.679702,795129.0,16624
1479.57,1.6824,790127.0,16417
1482.78,1.67727,784937.0,16503
1486,1.6792,779544.0,16317
1489.2,1.67902,773733.0,16202
1492.4,1.67562,767463.0,16197
1496.67,1.67274,758614.0,16117
1499.86,1.67627,751802.0,15843
1503.04,1.67068,744297.0,15888
1506.23,1.67216,735980.0,15657
1509.41,1.66936,728040.0,15588
1512.58,1.67167,719703.0,15328
1515.75,1.67638,710982.0,14979
1518.92,1.67247,702409.0,14932
1522.08,1.66659,693280.0,14939
1525.24,1.667727,683935.0,14699
1529.44,1.67543,671492.0,14178
1532.59,1.676887,661352.0,13917
1535.73,1.66435,650841.0,14097
1538.87,1.67431,640156.0,13551
1542,1.67115,629036.0,13413
1545.13,1.673095,617445.0,13107
1548.26,1.68363,605527.0,12546
1551.38,1.66977,594133.0,12709
1554.49,1.66288,582894.0,12668
1557.61,1.67077,571271.0,12192
1561.75,1.6617,555940.0,12115
1564.85,1.67171,544812.0,11602
1567.95,1.65831,533402.0,11715
1571.05,1.66418,521915.0,11309
1574.14,1.66752,510788.0,10983
1577.22,1.65491,499607.0,11059
1580.3,1.65612,487992.0,10772
1583.38,1.65923,476265.0,10438
1586.45,1.661701,464618.0,10125
1589.52,1.6596,452782.0,9915
1593.6,1.68416,436897.0,9041
1596.66,1.65022,425551.0,9522
1599.71,1.66859,414191.0,8884
1602.76,1.67414,402799.0,8530
1605.81,1.65325,391352.0,8696
1608.85,1.6556,380811.0,8416
1611.89,1.65437,370076.0,8202
1614.92,1.66547,359798.0,7773
1617.95,1.67509,349165.0,7378
1620.97,1.66078,338717.0,7397
1624.99,1.65051,325435.0,7277
1628.01,1.66778,315463.0,6779
1631.02,1.65975,305570.0,6689
1634.02,1.68164,295762.0,6156
1637.02,1.64312,286306.0,6512
1640.02,1.69049,276696.0,5643
1643.01,1.68988,267004.0,5453
1646,1.65404,257531.0,5712
1648.98,1.667893,247817.0,5324
1651.96,1.6524,238547.0,5311
1655.93,1.730976,225092.0,4182
1658.89,1.692886,214425.0,4349
1661.86,1.67564,202241.0,4268
1664.82,1.69517,188046.0,3794
1667.78,1.70398,171566.0,3392
1670.73,1.67087,154101.0,3288
1673.67,1.72413,134892.0,2546
1676.62,1.70571,115325.0,2271
1679.56,1.71514,97255.0,1874
1682.49,1.77856,81017.0,1349
1686.4,1.85681,63571.0,884
1689.32,1.61062,53566.0,1313
1692.24,1.87119,45493.0,612
1695.16,1.7459,39217.0,704
1698.07,1.49655,33537.0,1069
1700.97,1.86867,29118.0,394