Folder: Dorgan_Laubach_Research/Data/HDPE (part 3)

File: HDPE5_Column 1_20211229_164138.csv
***Scan Config Information***,,,,,,,***Reference Scan Information***,,,,,,,,
Scan Config Name:,Column 1,,,,,,Scan Config Name:,Built-in Factory Reference,,,,,,
Scan Config Type:,Slew,Num Section:,1,,,,Scan Config Type:,Slew,Num Section:,1,,,,,
Section Config Type:,Column,,,,,,Section Config Type:,Column,,,,,,,
Start Wavelength (nm):,900,,,,,,Start Wavelength (nm):,900.0,,,,,,
End Wavelength (nm):,1700,,,,,,End Wavelength (nm):,1700.0,,,,,,
Pattern Width (nm):,7.03,,,,,,Pattern Width (nm):,7.03,,,,,,,
Exposure (ms):,0.635,,,,,,Exposure (ms):,0.635,,,,,,,
Digital Resolution:,228,,,,,,Digital Resolution:,228,,,,,,,
Num Repeats:,6,,,,,,Num Repeats:,30,,,,,,,
PGA Gain:,64,,,,,,PGA Gain:,64,,,,,,
System Temp (C):,25.9,,,,,,System Temp (C):,24.17,,,,,,,
Humidity (%):,36.58,,,,,,Humidity (%):,30.0,,,,,,
Battery Capacity (%):,75,,,,,,Lamp Intensity:,2449,,,,,,,
Lamp Intensity:,2530,,,,,,Data Date-Time:,19/12/12T12:44:54,,,,,,
Data Date-Time:,18/1/1T7:10:58,,,,,,,,,,,,,,
Total Measurement Time in sec:,4.396,,,,,,,,,,,,,
***General Information***,,,,,,,***Calibration Coefficients***,,,,,,,,
Model Name:,NIR-S-G1,,,,,,Shift Vector Coefficients:,-8.44101,0.0554567,-8.45244e-05,,,,,
Serial Number:,947R055,95UB122GC0A947R055,,,,,Pixel to Wavelength Coefficients:,1795.87,-0.92014,-0.00023961,,,,,
APP Version:,2.16.7,,,,,,,,,,,,,
TIVA Version:,2.4.4,,,,,,***Lamp Usage * **,,,,,,,,
UUID:,de:67:c:88:67:2c:2d:21,,,,,,Total Time(HH:MM:SS):,11min 33sec ,,,,,,,
Main Board Version:,D,,,,,,***Device/Error Status***,,,,,,,,
Detector Board Version:,B,,,,,,Device Status:,0x00000031,,,,,,
,,,,,,,Error status:,0x00000000,Error Code:,0x00000000000000000000000000000000,,,,,
,,,,,,,,,Error Details:,Not Found,,,,,
***Scan Data***,,,,,,,,,,,,,,,
Wavelength (nm),Absorbance (AU),Reference Signal (unitless),Sample Signal (unitless)
901.841,1.34395,99968.0,4528
905.754,1.36995,108993.0,4650
909.663,1.33904,118185.0,5414
913.568,1.360038,129285.0,5643
917.469,1.392811,143347.0,5802
921.365,1.40315,160437.0,6341
925.257,1.40987,180387.0,7020
929.144,1.39708,201426.0,8073
933.028,1.435681,220694.0,8093
936.906,1.42244,237501.0,8979
942.072,1.41047,256956.0,9986
945.94,1.41749,270636.0,10349
949.805,1.41008,283621.0,11032
953.665,1.39435,296982.0,11978
957.521,1.38889,310733.0,12691
961.373,1.39759,324587.0,12994
965.22,1.38517,339205.0,13973
969.063,1.39029,353669.0,14398
972.902,1.406038,368253.0,14458
976.736,1.40925,382531.0,14908
981.842,1.40349,399901.0,15793
985.666,1.4161,411528.0,15787
989.486,1.41012,422199.0,16421
993.302,1.41149,431172.0,16717
997.113,1.427476,438051.0,16370
1000.92,1.41361,444216.0,17139
1004.72,1.42373,449307.0,16936
1008.52,1.42391,453601.0,17091
1012.32,1.41614,456801.0,17522
1016.11,1.43028,459312.0,17054
1021.15,1.42744,461643.0,17253
1024.93,1.43346,463069.0,17068
1028.71,1.43751,463868.0,16939
1032.48,1.43533,464326.0,17041
1036.24,1.44598,466001.0,16688
1040.01,1.45813,466870.0,16258
1043.77,1.45018,467033.0,16564
1047.52,1.43914,467045.0,16991
1051.27,1.44506,467467.0,16776
1055.01,1.457419,467627.0,16311
1060,1.440097,468351.0,17001
1063.74,1.4645,469050.0,16096
1067.47,1.44397,469880.0,16905
1071.19,1.460857,471228.0,16307
1074.92,1.45236,472558.0,16676
1078.63,1.45254,474087.0,16723
1082.35,1.4617,476569.0,16460
1086.06,1.45362,479445.0,16870
1089.76,1.45716,481756.0,16814
1093.46,1.45468,485147.0,17029
1098.39,1.46992,489755.0,16598
1102.08,1.46323,493535.0,16986
1105.77,1.46343,497426.0,17112
1109.45,1.4724,501308.0,16893
1113.13,1.46464,505725.0,17349
1116.8,1.467002,509421.0,17381
1120.47,1.474167,513217.0,17224
1124.13,1.47189,517470.0,17458
1127.79,1.462647,521690.0,17979
1131.45,1.47287,526099.0,17709
1136.32,1.480839,531329.0,17560
1139.96,1.4798,535549.0,17742
1143.61,1.49394,539808.0,17310
1147.24,1.48696,543900.0,17724
1150.88,1.50285,547908.0,17213
1154.5,1.51262,552170.0,16961
1158.13,1.51518,556773.0,17002
1161.75,1.531239,561098.0,16512
1165.36,1.54467,565898.0,16146
1168.98,1.5474,571300.0,16198
1172.58,1.56156,576602.0,15824
1177.39,1.56572,584320.0,15883
1180.98,1.582182,589396.0,15425
1184.58,1.57992,596143.0,15683
1188.16,1.59804,602955.0,15214
1191.75,1.61603,609704.0,14760
1195.33,1.632738,617215.0,14378
1198.9,1.651343,624471.0,13937
1202.48,1.65803,632472.0,13900
1206.04,1.69143,640381.0,13032
1209.61,1.71788,648161.0,12411
1214.35,1.71959,659999.0,12588
1217.9,1.71341,668609.0,12935
1221.45,1.694318,677405.0,13694
1224.99,1.66783,686281.0,14746
1228.53,1.65639,695317.0,15339
1232.07,1.6205,704063.0,16870
1235.6,1.6154,713007.0,17286
1239.13,1.58504,721330.0,18754
1242.65,1.588329,730030.0,18837
1246.17,1.57313,737591.0,19710
1250.85,1.572071,746809.0,20005
1254.36,1.56636,753336.0,20447
1257.86,1.56574,759907.0,20655
1261.36,1.55177,766538.0,21516
1264.86,1.55285,774802.0,21694
1268.35,1.55021,784025.0,22086
1271.83,1.55275,794336.0,22246
1275.32,1.546724,804198.0,22837
1278.79,1.55148,813836.0,22859
1282.27,1.546665,823595.0,23391
1286.89,1.54454,834533.0,23818
1290.36,1.55105,842581.0,23690
1293.81,1.55132,849301.0,23864
1297.27,1.5558,856026.0,23806
1300.72,1.554932,862498.0,24034
1304.17,1.54799,868068.0,24579
1307.61,1.54783,872869.0,24724
1311.05,1.55393,877616.0,24512
1314.48,1.54337,881872.0,25237
1317.91,1.54585,885520.0,25197
1322.47,1.55044,888917.0,25028
1325.89,1.55513,891687.0,24836
1329.31,1.54901,894001.0,25254
1332.72,1.55469,895438.0,24966
1336.12,1.54751,896641.0,25416
1339.52,1.55059,897974.0,25274
1342.92,1.55829,898777.0,24852
1346.31,1.55829,898783.0,24852
1349.7,1.54962,898350.0,25341
1353.09,1.55881,896784.0,24767
1357.59,1.55769,895293.0,24790
1360.97,1.56994,892755.0,24032
1364.34,1.56914,890430.0,24014
1367.7,1.58188,888504.0,23269
1371.06,1.57802,885825.0,23406
1374.42,1.57944,881046.0,23204
1377.77,1.60124,874030.0,21892
1381.12,1.607101,865751.0,21394
1384.47,1.63903,857799.0,19695
1387.81,1.64688,851759.0,19206
1392.25,1.68768,846500.0,17376
1395.58,1.68525,843622.0,17414
1398.91,1.66659,841228.0,18127
1402.23,1.66171,838489.0,18272
1405.55,1.652377,836065.0,18615
1408.86,1.66707,834396.0,17960
1412.17,1.67912,832187.0,17422
1415.47,1.69244,830123.0,16854
1418.77,1.68651,828244.0,17047
1422.07,1.68873,827314.0,16941
1426.45,1.68462,826435.0,17084
1429.74,1.68959,825475.0,16870
1433.02,1.673557,824938.0,17493
1436.29,1.67593,823959.0,17377
1439.57,1.66811,823822.0,17690
1442.83,1.66427,823184.0,17833
1446.1,1.65977,821953.0,17992
1449.36,1.64908,821135.0,18422
1452.61,1.65532,819413.0,18121
1455.86,1.63591,817492.0,18905
1459.11,1.6465,814862.0,18390
1463.43,1.63553,811075.0,18773
1466.67,1.63034,807671.0,18919
1469.9,1.624242,803699.0,19092
1473.13,1.627658,799396.0,18841
1476.35,1.6154,795129.0,19277
1479.57,1.6058,790127.0,19584
1482.78,1.6073,784937.0,19388
1486,1.598213,779544.0,19662
1489.2,1.61766,773733.0,18661
1492.4,1.59968,767463.0,19292
1496.67,1.60102,758614.0,19011
1499.86,1.59994,751802.0,18887
1503.04,1.61273,744297.0,18156
1506.23,1.59287,735980.0,18793
1509.41,1.604045,728040.0,18118
1512.58,1.59444,719703.0,18311
1515.75,1.6042,710982.0,17687
1518.92,1.60236,702409.0,17548
1522.08,1.601409,693280.0,17358
1525.24,1.605589,683935.0,16960
1529.44,1.59792,671492.0,16948
1532.59,1.59644,661352.0,16749
1535.73,1.61047,650841.0,15959
1538.87,1.61208,640156.0,15639
1542,1.60253,629036.0,15709
1545.13,1.60271,617445.0,15413
1548.26,1.591018,605527.0,15528
1551.38,1.58803,594133.0,15341
1554.49,1.59173,582894.0,14923
1557.61,1.60254,571271.0,14266
1561.75,1.58933,555940.0,14312
1564.85,1.58243,544812.0,14250
1567.95,1.57661,533402.0,14140
1571.05,1.57961,521915.0,13740
1574.14,1.59243,510788.0,13056
1577.22,1.59071,499607.0,12821
1580.3,1.578598,487992.0,12877
1583.38,1.582261,476265.0,12462
1586.45,1.57455,464618.0,12375
1589.52,1.59109,452782.0,11609
1593.6,1.58074,436897.0,11472
1596.66,1.57819,425551.0,11240
1599.71,1.57294,414191.0,11073
1602.76,1.59364,402799.0,10267
1605.81,1.5737,391352.0,10444
1608.85,1.59077,380811.0,9771
1611.89,1.59939,370076.0,9309
1614.92,1.58386,359798.0,9380
1617.95,1.58879,349165.0,9000
1620.97,1.5644,338717.0,9235
1624.99,1.592602,325435.0,8315
1628.01,1.59105,315463.0,8089
1631.02,1.58622,305570.0,7923
1634.02,1.60685,295762.0,7313
1637.02,1.605022,286306.0,7109
1640.02,1.57154,276696.0,7421
1643.01,1.58422,267004.0,6955
1646,1.58024,257531.0,6770
1648.98,1.58911,247817.0,6383
1651.96,1.59047,238547.0,6125
1655.93,1.56554,225092.0,6121
1658.89,1.59099,214425.0,5499
1661.86,1.59966,202241.0,5084
1664.82,1.60263,188046.0,4695
1667.78,1.63849,171566.0,3944
1670.73,1.559008,154101.0,4254
1673.67,1.5652,134892.0,3671
1676.62,1.57225,115325.0,3088
1679.56,1.537201,97255.0,2823
1682.49,1.50426,81017.0,2537
1686.4,1.44229,63571.0,2296
1689.32,1.49921,53566.0,1697
1692.24,1.3896,45493.0,1855
1695.16,1.49345,39217.0,1259
1698.07,1.53519,33537.0,978
1700.97,1.40574,29118.0,1144

File: HDPE6_Column 1_20211229_164153.csv
***Scan Config Information***,,,,,,,***Reference Scan Information***,,,,,,,,
Scan Config Name:,Column 1,,,,,,Scan Config Name:,Built-in Factory Reference,,,,,,
Scan Config Type:,Slew,Num Section:,1,,,,Scan Config Type:,Slew,Num Section:,1,,,,,
Section Config Type:,Column,,,,,,Section Config Type:,Column,,,,,,,
Start Wavelength (nm):,900,,,,,,Start Wavelength (nm):,900.0,,,,,,
End Wavelength (nm):,1700,,,,,,End Wavelength (nm):,1700.0,,,,,,
Pattern Width (nm):,7.03,,,,,,Pattern Width (nm):,7.03,,,,,,,
Exposure (ms):,0.635,,,,,,Exposure (ms):,0.635,,,,,,,
Digital Resolution:,228,,,,,,Digital Resolution:,228,,,,,,,
Num Repeats:,6,,,,,,Num Repeats:,30,,,,,,,
PGA Gain:,64,,,,,,PGA Gain:,64,,,,,,
System Temp (C):,26.12,,,,,,System Temp (C):,24.17,,,,,,,
Humidity (%):,36.76,,,,,,Humidity (%):,30.0,,,,,,
Battery Capacity (%):,74,,,,,,Lamp Intensity:,2449,,,,,,,
Lamp Intensity:,2535,,,,,,Data Date-Time:,19/12/12T12:44:54,,,,,,
Data Date-Time:,18/1/1T7:11:14,,,,,,,,,,,,,,
Total Measurement Time in sec:,4.4,,,,,,,,,,,,,
***General Information***,,,,,,,***Calibration Coefficients***,,,,,,,,
Model Name:,NIR-S-G1,,,,,,Shift Vector Coefficients:,-8.44101,0.0554567,-8.45244e-05,,,,,
Serial Number:,947R055,95UB122GC0A947R055,,,,,Pixel to Wavelength Coefficients:,1795.87,-0.92014,-0.00023961,,,,,
APP Version:,2.16.7,,,,,,,,,,,,,
TIVA Version:,2.4.4,,,,,,***Lamp Usage * **,,,,,,,,
UUID:,de:67:c:88:67:2c:2d:21,,,,,,Total Time(HH:MM:SS):,11min 35sec ,,,,,,,
Main Board Version:,D,,,,,,***Device/Error Status***,,,,,,,,
Detector Board Version:,B,,,,,,Device Status:,0x00000031,,,,,,
,,,,,,,Error status:,0x00000000,Error Code:,0x00000000000000000000000000000000,,,,,
,,,,,,,,,Error Details:,Not Found,,,,,
***Scan Data***,,,,,,,,,,,,,,,
Wavelength (nm),Absorbance (AU),Reference Signal (unitless),Sample Signal (unitless)
901.841,1.40702,99968.0,3916
905.754,1.36864,108993.0,4664
909.663,1.36236,118185.0,5131
913.568,1.38271,129285.0,5356
917.469,1.40843,143347.0,5597
921.365,1.39266,160437.0,6496
925.257,1.40014,180387.0,7179
929.144,1.38861,201426.0,8232
933.028,1.41776,220694.0,8434
936.906,1.39977,237501.0,9460
942.072,1.38603,256956.0,10564
945.94,1.40864,270636.0,10562
949.805,1.37515,283621.0,11956
953.665,1.37913,296982.0,12405
957.521,1.37638,310733.0,13062
961.373,1.38003,324587.0,13530
965.22,1.3897,339205.0,13828
969.063,1.37995,353669.0,14745
972.902,1.38852,368253.0,15053
976.736,1.38871,382531.0,15630
981.842,1.38077,399901.0,16641
985.666,1.38605,411528.0,16918
989.486,1.39113,422199.0,17155
993.302,1.38727,431172.0,17676
997.113,1.39732,438051.0,17547
1000.92,1.40327,444216.0,17552
1004.72,1.40151,449307.0,17825
1008.52,1.38887,453601.0,18527
1012.32,1.40542,456801.0,17960
1016.11,1.40628,459312.0,18023
1021.15,1.40555,461643.0,18145
1024.93,1.40799,463069.0,18099
1028.71,1.40661,463868.0,18188
1032.48,1.41934,464326.0,17680
1036.24,1.41938,466001.0,17742
1040.01,1.41608,466870.0,17911
1043.77,1.41812,467033.0,17833
1047.52,1.42464,467045.0,17568
1051.27,1.43008,467467.0,17365
1055.01,1.42498,467627.0,17576
1060,1.43573,468351.0,17173
1063.74,1.42808,469050.0,17504
1067.47,1.4262,469880.0,17611
1071.19,1.43722,471228.0,17219
1074.92,1.44536,472558.0,16947
1078.63,1.43369,474087.0,17465
1082.35,1.43688,476569.0,17428
1086.06,1.43439,479445.0,17634
1089.76,1.439417,481756.0,17515
1093.46,1.43982,485147.0,17622
1098.39,1.43235,489755.0,18098
1102.08,1.44022,493535.0,17910
1105.77,1.44604,497426.0,17811
1109.45,1.44732,501308.0,17897
1113.13,1.45094,505725.0,17905
1116.8,1.44806,509421.0,18156
1120.47,1.44548,513217.0,18400
1124.13,1.44512,517470.0,18568
1127.79,1.45267,521690.0,18397
1131.45,1.45458,526099.0,18471
1136.32,1.44936,531329.0,18880
1139.96,1.455358,535549.0,18769
1143.61,1.46058,539808.0,18692
1147.24,1.47607,543900.0,18174
1150.88,1.47194,547908.0,18483
1154.5,1.48521,552170.0,18066
1158.13,1.49203,556773.0,17933
1161.75,1.49512,561098.0,17944
1165.36,1.51797,565898.0,17170
1168.98,1.52209,571300.0,17170
1172.58,1.5252,576602.0,17206
1177.39,1.53069,584320.0,17217
1180.98,1.54699,589396.0,16727
1184.58,1.55826,596143.0,16485
1188.16,1.57295,602955.0,16119
1191.75,1.57859,609704.0,16089
1195.33,1.58442,617215.0,16070
1198.9,1.62209,624471.0,14908
1202.48,1.64117,632472.0,14450
1206.04,1.653661,640381.0,14216
1209.61,1.6756,648161.0,13680
1214.35,1.68645,659999.0,13586
1217.9,1.677465,668609.0,14051
1221.45,1.67469,677405.0,14327
1224.99,1.6446,686281.0,15556
1228.53,1.62523,695317.0,16480
1232.07,1.60094,704063.0,17647
1235.6,1.57124,713007.0,19136
1239.13,1.55967,721330.0,19882
1242.65,1.55514,730030.0,20333
1246.17,1.53629,737591.0,21455
1250.85,1.53585,746809.0,21745
1254.36,1.52026,753336.0,22737
1257.86,1.52677,759907.0,22594
1261.36,1.52183,766538.0,23052
1264.86,1.51663,774802.0,23581
1268.35,1.51644,784025.0,23872
1271.83,1.51495,794336.0,24269
1275.32,1.50897,804198.0,24911
1278.79,1.5178,813836.0,24702
1282.27,1.51254,823595.0,25303
1286.89,1.52219,834533.0,25076
1290.36,1.51198,842581.0,25920
1293.81,1.51219,849301.0,26114
1297.27,1.510439,856026.0,26427
1300.72,1.50969,862498.0,26673
1304.17,1.51325,868068.0,26626
1307.61,1.51314,872869.0,26780
1311.05,1.51872,877616.0,26582
1314.48,1.50307,881872.0,27691
1317.91,1.5154,885520.0,27027
1322.47,1.51442,888917.0,27192
1325.89,1.50926,891687.0,27603
1329.31,1.50997,894001.0,27629
1332.72,1.50854,895438.0,27765
1336.12,1.514187,896641.0,27443
1339.52,1.5179,897974.0,27250
1342.92,1.51103,898777.0,27709
1346.31,1.5187,898783.0,27224
1349.7,1.51043,898350.0,27734
1353.09,1.51586,896784.0,27342
1357.59,1.52254,895293.0,26880
1360.97,1.5193,892755.0,27004
1364.34,1.52601,890430.0,26521
1367.7,1.53217,888504.0,26091
1371.06,1.53867,885825.0,25626
1374.42,1.55504,881046.0,24545
1377.77,1.55596,874030.0,24298
1381.12,1.57369,865751.0,23105
1384.47,1.59146,857799.0,21975
1387.81,1.60628,851759.0,21088
1392.25,1.64099,846500.0,19348
1395.58,1.6476,843622.0,18991
1398.91,1.63346,841228.0,19564
1402.23,1.62045,838489.0,20093
1405.55,1.61885,836065.0,20109
1408.86,1.62693,834396.0,19699
1412.17,1.64512,832187.0,18841
1415.47,1.64839,830123.0,18653
1418.77,1.65447,828244.0,18352
1422.07,1.64648,827314.0,18672
1426.45,1.64714,826435.0,18624
1429.74,1.64435,825475.0,18722
1433.02,1.62976,824938.0,19349
1436.29,1.64451,823959.0,18681
1439.57,1.63136,823822.0,19252
1442.83,1.63908,823184.0,18898
1446.1,1.63055,821953.0,19244
1449.36,1.61751,821135.0,19811
1452.61,1.61033,819413.0,20099
1455.86,1.60062,817492.0,20505
1459.11,1.615517,814862.0,19750
1463.43,1.58817,811075.0,20936
1466.67,1.58921,807671.0,20798
1469.9,1.58678,803699.0,20812
1473.13,1.57682,799396.0,21181
1476.35,1.58146,795129.0,20844
1479.57,1.57525,790127.0,21011
1482.78,1.57857,784937.0,20714
1486,1.58204,779544.0,20408
1489.2,1.574724,773733.0,20600
1492.4,1.56902,767463.0,20703
1496.67,1.55832,758614.0,20975
1499.86,1.563017,751802.0,20563
1503.04,1.56616,744297.0,20211
1506.23,1.56339,735980.0,20113
1509.41,1.56784,728040.0,19693
1512.58,1.57347,719703.0,19217
1515.75,1.56354,710982.0,19423
1518.92,1.55977,702409.0,19356
1522.08,1.56383,693280.0,18927
1525.24,1.559197,683935.0,18872
1529.44,1.56381,671492.0,18333
1532.59,1.57352,661352.0,17657
1535.73,1.572726,650841.0,17408
1538.87,1.58688,640156.0,16573
1542,1.578149,629036.0,16616
1545.13,1.58267,617445.0,16141
1548.26,1.57763,605527.0,16014
1551.38,1.563,594133.0,16251
1554.49,1.564411,582894.0,15892
1557.61,1.56735,571271.0,15470
1561.75,1.5639,555940.0,15175
1564.85,1.55782,544812.0,15081
1567.95,1.54808,533402.0,15100
1571.05,1.56351,521915.0,14259
1574.14,1.551843,510788.0,14335
1577.22,1.54852,499607.0,14129
1580.3,1.55992,487992.0,13443
1583.38,1.55935,476265.0,13137
1586.45,1.55816,464618.0,12851
1589.52,1.55898,452782.0,12500
1593.6,1.57138,436897.0,11722
1596.66,1.54096,425551.0,12246
1599.71,1.57278,414191.0,11077
1602.76,1.5677,402799.0,10899
1605.81,1.5418,391352.0,11240
1608.85,1.55803,380811.0,10536
1611.89,1.56925,370076.0,9978
1614.92,1.5624,359798.0,9855
1617.95,1.57013,349165.0,9395
1620.97,1.5621,338717.0,9284
1624.99,1.5563,325435.0,9040
1628.01,1.563139,315463.0,8626
1631.02,1.546541,305570.0,8681
1634.02,1.5779,295762.0,7817
1637.02,1.56524,286306.0,7791
1640.02,1.579633,276696.0,7284
1643.01,1.59203,267004.0,6831
1646,1.56449,257531.0,7020
1648.98,1.559075,247817.0,6840
1651.96,1.58799,238547.0,6160
1655.93,1.59171,225092.0,5763
1658.89,1.56935,214425.0,5780
1661.86,1.58184,202241.0,5297
1664.82,1.6056,188046.0,4663
1667.78,1.601367,171566.0,4296
1670.73,1.56136,154101.0,4231
1673.67,1.53781,134892.0,3910
1676.62,1.549773,115325.0,3252
1679.56,1.56156,97255.0,2669
1682.49,1.59576,81017.0,2055
1686.4,1.58815,63571.0,1641
1689.32,1.80255,53566.0,844
1692.24,1.55517,45493.0,1267
1695.16,1.70642,39217.0,771
1698.07,1.60228,33537.0,838
1700.97,1.64199,29118.0,664