Folder: Dorgan_Laubach_Research/Data/HDPE (part 6)

File: HDPE11_Column 1_20211229_230131.csv
***Scan Config Information***,,,,,,,***Reference Scan Information***,,,,,,,,
Scan Config Name:,Column 1,,,,,,Scan Config Name:,Built-in Factory Reference,,,,,,
Scan Config Type:,Slew,Num Section:,1,,,,Scan Config Type:,Slew,Num Section:,1,,,,,
Section Config Type:,Column,,,,,,Section Config Type:,Column,,,,,,,
Start Wavelength (nm):,900,,,,,,Start Wavelength (nm):,900.0,,,,,,
End Wavelength (nm):,1700,,,,,,End Wavelength (nm):,1700.0,,,,,,
Pattern Width (nm):,7.03,,,,,,Pattern Width (nm):,7.03,,,,,,,
Exposure (ms):,0.635,,,,,,Exposure (ms):,0.635,,,,,,,
Digital Resolution:,228,,,,,,Digital Resolution:,228,,,,,,,
Num Repeats:,6,,,,,,Num Repeats:,30,,,,,,,
PGA Gain:,64,,,,,,PGA Gain:,64,,,,,,
System Temp (C):,18.19,,,,,,System Temp (C):,24.17,,,,,,,
Humidity (%):,39.42,,,,,,Humidity (%):,30.0,,,,,,
Battery Capacity (%):,72,,,,,,Lamp Intensity:,2449,,,,,,,
Lamp Intensity:,2426,,,,,,Data Date-Time:,19/12/12T12:44:54,,,,,,
Data Date-Time:,18/1/1T7:0:30,,,,,,,,,,,,,,
Total Measurement Time in sec:,4.616,,,,,,,,,,,,,
***General Information***,,,,,,,***Calibration Coefficients***,,,,,,,,
Model Name:,NIR-S-G1,,,,,,Shift Vector Coefficients:,-8.44101,0.0554567,-8.45244e-05,,,,,
Serial Number:,947R055,95UB122GC0A947R055,,,,,Pixel to Wavelength Coefficients:,1795.87,-0.92014,-0.00023961,,,,,
APP Version:,2.16.7,,,,,,,,,,,,,
TIVA Version:,2.4.4,,,,,,***Lamp Usage * **,,,,,,,,
UUID:,de:67:c:88:67:2c:2d:21,,,,,,Total Time(HH:MM:SS):,11min 46sec ,,,,,,,
Main Board Version:,D,,,,,,***Device/Error Status***,,,,,,,,
Detector Board Version:,B,,,,,,Device Status:,0x00000031,,,,,,
,,,,,,,Error status:,0x00000000,Error Code:,0x00000000000000000000000000000000,,,,,
,,,,,,,,,Error Details:,Not Found,,,,,
***Scan Data***,,,,,,,,,,,,,,,
Wavelength (nm),Absorbance (AU),Reference Signal (unitless),Sample Signal (unitless)
901.841,1.13405,99968.0,7342
905.754,1.09843,108993.0,8689
909.663,1.10835,118185.0,9209
913.568,1.09715,129285.0,10337
917.469,1.1124,143347.0,11066
921.365,1.12678,160437.0,11982
925.257,1.120691,180387.0,13662
929.144,1.1479,201426.0,14329
933.028,1.13067,220694.0,16335
936.906,1.12978,237501.0,17615
942.072,1.13605,256956.0,18785
945.94,1.12749,270636.0,20179
949.805,1.12302,283621.0,21366
953.665,1.118737,296982.0,22594
957.521,1.13166,310733.0,22947
961.373,1.1246,324587.0,24363
965.22,1.13134,339205.0,25068
969.063,1.13059,353669.0,26182
972.902,1.13715,368253.0,26853
976.736,1.12962,382531.0,28382
981.842,1.132705,399901.0,29461
985.666,1.1306,411528.0,30465
989.486,1.138591,422199.0,30685
993.302,1.13888,431172.0,31316
997.113,1.14516,438051.0,31359
1000.92,1.14949,444216.0,31485
1004.72,1.153475,449307.0,31555
1008.52,1.1517,453601.0,31987
1012.32,1.15091,456801.0,32271
1016.11,1.157338,459312.0,31972
1021.15,1.16003,461643.0,31936
1024.93,1.16368,463069.0,31766
1028.71,1.16564,463868.0,31678
1032.48,1.1701,464326.0,31385
1036.24,1.173509,466001.0,31252
1040.01,1.17053,466870.0,31526
1043.77,1.170596,467033.0,31532
1047.52,1.17971,467045.0,30878
1051.27,1.17443,467467.0,31284
1055.01,1.173219,467627.0,31382
1060,1.17794,468351.0,31091
1063.74,1.17773,469050.0,31152
1067.47,1.17721,469880.0,31245
1071.19,1.17798,471228.0,31279
1074.92,1.17823,472558.0,31349
1078.63,1.18331,474087.0,31085
1082.35,1.18153,476569.0,31376
1086.06,1.178913,479445.0,31756
1089.76,1.18677,481756.0,31337
1093.46,1.1804,485147.0,32024
1098.39,1.18191,489755.0,32216
1102.08,1.18365,493535.0,32335
1105.77,1.18533,497426.0,32464
1109.45,1.187607,501308.0,32546
1113.13,1.19123,505725.0,32560
1116.8,1.19622,509421.0,32423
1120.47,1.188627,513217.0,33241
1124.13,1.19545,517470.0,32994
1127.79,1.19283,521690.0,33464
1131.45,1.19439,526099.0,33626
1136.32,1.19244,531329.0,34113
1139.96,1.2042,535549.0,33466
1143.61,1.205577,539808.0,33625
1147.24,1.214682,543900.0,33177
1150.88,1.21409,547908.0,33467
1154.5,1.22523,552170.0,32873
1158.13,1.23375,556773.0,32503
1161.75,1.24345,561098.0,32032
1165.36,1.25357,565898.0,31562
1168.98,1.25813,571300.0,31531
1172.58,1.26435,576602.0,31371
1177.39,1.27851,584320.0,30771
1180.98,1.28169,589396.0,30812
1184.58,1.28828,596143.0,30695
1188.16,1.30137,602955.0,30124
1191.75,1.31651,609704.0,29418
1195.33,1.33348,617215.0,28639
1198.9,1.35308,624471.0,27697
1202.48,1.37934,632472.0,26406
1206.04,1.39694,640381.0,25674
1209.61,1.4246,648161.0,24383
1214.35,1.43823,659999.0,24061
1217.9,1.43228,668609.0,24711
1221.45,1.40595,677405.0,26601
1224.99,1.38533,686281.0,28260
1228.53,1.35352,695317.0,30808
1232.07,1.33743,704063.0,32373
1235.6,1.30924,713007.0,34983
1239.13,1.30017,721330.0,36138
1242.65,1.29027,730030.0,37417
1246.17,1.27848,737591.0,38845
1250.85,1.27393,746809.0,39745
1254.36,1.26909,753336.0,40541
1257.86,1.2658,759907.0,41206
1261.36,1.25923,766538.0,42199
1264.86,1.26071,774802.0,42509
1268.35,1.25628,784025.0,43456
1271.83,1.25081,794336.0,44586
1275.32,1.2541,804198.0,44798
1278.79,1.2521,813836.0,45545
1282.27,1.25442,823595.0,45845
1286.89,1.25248,834533.0,46662
1290.36,1.25649,842581.0,46679
1293.81,1.25451,849301.0,47266
1297.27,1.25515,856026.0,47570
1300.72,1.25356,862498.0,48106
1304.17,1.25064,868068.0,48743
1307.61,1.25194,872869.0,48866
1311.05,1.25161,877616.0,49169
1314.48,1.25447,881872.0,49083
1317.91,1.25316,885520.0,49435
1322.47,1.25399,888917.0,49530
1325.89,1.25142,891687.0,49980
1329.31,1.25346,894001.0,49874
1332.72,1.25316,895438.0,49989
1336.12,1.25097,896641.0,50309
1339.52,1.25414,897974.0,50018
1342.92,1.25418,898777.0,50058
1346.31,1.25437,898783.0,50036
1349.7,1.25447,898350.0,50001
1353.09,1.2601,896784.0,49271
1357.59,1.259,895293.0,49313
1360.97,1.26265,892755.0,48762
1364.34,1.26618,890430.0,48241
1367.7,1.2718,888504.0,47518
1371.06,1.27927,885825.0,46567
1374.42,1.289572,881046.0,45230
1377.77,1.29716,874030.0,44093
1381.12,1.30726,865751.0,42671
1384.47,1.33208,857799.0,39931
1387.81,1.35384,851759.0,37712
1392.25,1.38228,846500.0,35103
1395.58,1.38791,843622.0,34533
1398.91,1.37633,841228.0,35366
1402.23,1.36798,838489.0,35935
1405.55,1.36739,836065.0,35880
1408.86,1.36892,834396.0,35682
1412.17,1.38519,832187.0,34279
1415.47,1.39431,830123.0,33484
1418.77,1.39467,828244.0,33380
1422.07,1.39524,827314.0,33299
1426.45,1.39002,826435.0,33666
1429.74,1.3856,825475.0,33971
1433.02,1.38675,824938.0,33859
1436.29,1.38815,823959.0,33710
1439.57,1.37755,823822.0,34537
1442.83,1.3696,823184.0,35148
1446.1,1.365991,821953.0,35388
1449.36,1.35855,821135.0,35964
1452.61,1.35837,819413.0,35903
1455.86,1.35098,817492.0,36434
1459.11,1.34647,814862.0,36696
1463.43,1.34079,811075.0,37006
1466.67,1.3343,807671.0,37405
1469.9,1.33299,803699.0,37334
1473.13,1.32857,799396.0,37514
1476.35,1.325712,795129.0,37560
1479.57,1.31717,790127.0,38065
1482.78,1.312351,784937.0,38237
1486,1.31736,779544.0,37539
1489.2,1.31121,773733.0,37790
1492.4,1.3089,767463.0,37684
1496.67,1.30547,758614.0,37545
1499.86,1.30972,751802.0,36845
1503.04,1.30725,744297.0,36686
1506.23,1.309732,735980.0,36069
1509.41,1.30694,728040.0,35910
1512.58,1.30423,719703.0,35721
1515.75,1.31082,710982.0,34757
1518.92,1.31028,702409.0,34380
1522.08,1.30605,693280.0,34266
1525.24,1.30882,683935.0,33589
1529.44,1.31629,671492.0,32415
1532.59,1.31504,661352.0,32018
1535.73,1.31222,650841.0,31714
1538.87,1.32156,640156.0,30530
1542,1.32263,629036.0,29926
1545.13,1.31688,617445.0,29766
1548.26,1.31491,605527.0,29324
1551.38,1.31425,594133.0,28816
1554.49,1.31897,582894.0,27965
1557.61,1.3076,571271.0,28135
1561.75,1.30428,555940.0,27590
1564.85,1.31239,544812.0,26537
1567.95,1.30456,533402.0,26454
1571.05,1.29835,521915.0,26257
1574.14,1.30002,510788.0,25599
1577.22,1.307023,499607.0,24638
1580.3,1.29609,487992.0,24679
1583.38,1.30481,476265.0,23607
1586.45,1.3073,464618.0,22898
1589.52,1.30475,452782.0,22446
1593.6,1.30252,436897.0,21770
1596.66,1.31614,425551.0,20550
1599.71,1.3074,414191.0,20408
1602.76,1.30875,402799.0,19785
1605.81,1.3053,391352.0,19376
1608.85,1.30757,380811.0,18756
1611.89,1.31167,370076.0,18056
1614.92,1.304007,359798.0,17867
1617.95,1.29984,349165.0,17506
1620.97,1.30696,338717.0,16706
1624.99,1.32399,325435.0,15434
1628.01,1.32857,315463.0,14804
1631.02,1.32584,305570.0,14430
1634.02,1.31273,295762.0,14395
1637.02,1.330959,286306.0,13362
1640.02,1.32002,276696.0,13243
1643.01,1.30925,267004.0,13100
1646,1.321808,257531.0,12275
1648.98,1.32383,247817.0,11757
1651.96,1.36461,238547.0,10303
1655.93,1.344058,225092.0,10193
1658.89,1.33956,214425.0,9811
1661.86,1.35211,202241.0,8990
1664.82,1.36648,188046.0,8087
1667.78,1.37451,171566.0,7243
1670.73,1.37973,154101.0,6428
1673.67,1.42327,134892.0,5090
1676.62,1.45447,115325.0,4050
1679.56,1.40347,97255.0,3841
1682.49,1.45054,81017.0,2871
1686.4,1.42522,63571.0,2388
1689.32,1.46953,53566.0,1817
1692.24,1.44789,45493.0,1622
1695.16,1.43331,39217.0,1446
1698.07,1.43597,33537.0,1229
1700.97,1.39896,29118.0,1162

File: HDPE12_Column 1_20211229_230148.csv
***Scan Config Information***,,,,,,,***Reference Scan Information***,,,,,,,,
Scan Config Name:,Column 1,,,,,,Scan Config Name:,Built-in Factory Reference,,,,,,
Scan Config Type:,Slew,Num Section:,1,,,,Scan Config Type:,Slew,Num Section:,1,,,,,
Section Config Type:,Column,,,,,,Section Config Type:,Column,,,,,,,
Start Wavelength (nm):,900,,,,,,Start Wavelength (nm):,900.0,,,,,,
End Wavelength (nm):,1700,,,,,,End Wavelength (nm):,1700.0,,,,,,
Pattern Width (nm):,7.03,,,,,,Pattern Width (nm):,7.03,,,,,,,
Exposure (ms):,0.635,,,,,,Exposure (ms):,0.635,,,,,,,
Digital Resolution:,228,,,,,,Digital Resolution:,228,,,,,,,
Num Repeats:,6,,,,,,Num Repeats:,30,,,,,,,
PGA Gain:,64,,,,,,PGA Gain:,64,,,,,,
System Temp (C):,18.69,,,,,,System Temp (C):,24.17,,,,,,,
Humidity (%):,38.93,,,,,,Humidity (%):,30.0,,,,,,
Battery Capacity (%):,71,,,,,,Lamp Intensity:,2449,,,,,,,
Lamp Intensity:,2430,,,,,,Data Date-Time:,19/12/12T12:44:54,,,,,,
Data Date-Time:,18/1/1T7:0:47,,,,,,,,,,,,,,
Total Measurement Time in sec:,4.441,,,,,,,,,,,,,
***General Information***,,,,,,,***Calibration Coefficients***,,,,,,,,
Model Name:,NIR-S-G1,,,,,,Shift Vector Coefficients:,-8.44101,0.0554567,-8.45244e-05,,,,,
Serial Number:,947R055,95UB122GC0A947R055,,,,,Pixel to Wavelength Coefficients:,1795.87,-0.92014,-0.00023961,,,,,
APP Version:,2.16.7,,,,,,,,,,,,,
TIVA Version:,2.4.4,,,,,,***Lamp Usage * **,,,,,,,,
UUID:,de:67:c:88:67:2c:2d:21,,,,,,Total Time(HH:MM:SS):,11min 48sec ,,,,,,,
Main Board Version:,D,,,,,,***Device/Error Status***,,,,,,,,
Detector Board Version:,B,,,,,,Device Status:,0x00000031,,,,,,
,,,,,,,Error status:,0x00000000,Error Code:,0x00000000000000000000000000000000,,,,,
,,,,,,,,,Error Details:,Not Found,,,,,
***Scan Data***,,,,,,,,,,,,,,,
Wavelength (nm),Absorbance (AU),Reference Signal (unitless),Sample Signal (unitless)
901.841,1.38465,99968.0,4123
905.754,1.43828,108993.0,3973
909.663,1.45035,118185.0,4190
913.568,1.39031,129285.0,5263
917.469,1.41808,143347.0,5474
921.365,1.42766,160437.0,5993
925.257,1.44685,180387.0,6447
929.144,1.4245,201426.0,7579
933.028,1.43349,220694.0,8134
936.906,1.43685,237501.0,8686
942.072,1.434381,256956.0,9451
945.94,1.42472,270636.0,10178
949.805,1.40765,283621.0,11094
953.665,1.41533,296982.0,11413
957.521,1.42028,310733.0,11806
961.373,1.41182,324587.0,12575
965.22,1.41121,339205.0,13160
969.063,1.41315,353669.0,13660
972.902,1.42229,368253.0,13927
976.736,1.40637,382531.0,15007
981.842,1.42318,399901.0,15093
985.666,1.427782,411528.0,15368
989.486,1.417264,422199.0,16153
993.302,1.42931,431172.0,16045
997.113,1.43354,438051.0,16143
1000.92,1.41653,444216.0,17024
1004.72,1.429281,449307.0,16721
1008.52,1.42216,453601.0,17160
1012.32,1.42737,456801.0,17075
1016.11,1.43161,459312.0,17002
1021.15,1.44323,461643.0,16637
1024.93,1.43313,463069.0,17081
1028.71,1.44083,463868.0,16810
1032.48,1.44719,464326.0,16582
1036.24,1.45826,466001.0,16223
1040.01,1.45066,466870.0,16540
1043.77,1.44788,467033.0,16652
1047.52,1.44142,467045.0,16902
1051.27,1.45706,467467.0,16319
1055.01,1.45955,467627.0,16231
1060,1.44562,468351.0,16786
1063.74,1.46429,469050.0,16104
1067.47,1.44839,469880.0,16734
1071.19,1.46038,471228.0,16325
1074.92,1.45903,472558.0,16422
1078.63,1.46083,474087.0,16407
1082.35,1.45292,476569.0,16796
1086.06,1.45231,479445.0,16921
1089.76,1.46495,481756.0,16515
1093.46,1.46103,485147.0,16782
1098.39,1.46379,489755.0,16834
1102.08,1.46124,493535.0,17064
1105.77,1.45843,497426.0,17310
1109.45,1.46488,501308.0,17188
1113.13,1.46542,505725.0,17318
1116.8,1.4593,509421.0,17692
1120.47,1.471252,513217.0,17340
1124.13,1.47202,517470.0,17453
1127.79,1.46934,521690.0,17704
1131.45,1.47057,526099.0,17803
1136.32,1.476263,531329.0,17746
1139.96,1.47148,535549.0,18085
1143.61,1.47668,539808.0,18012
1147.24,1.49013,543900.0,17595
1150.88,1.49263,547908.0,17623
1154.5,1.496733,552170.0,17593
1158.13,1.51615,556773.0,16964
1161.75,1.51313,561098.0,17215
1165.36,1.52673,565898.0,16827
1168.98,1.53485,571300.0,16673
1172.58,1.53255,576602.0,16917
1177.39,1.54315,584320.0,16730
1180.98,1.56248,589396.0,16141
1184.58,1.55726,596143.0,16523
1188.16,1.56267,602955.0,16505
1191.75,1.58013,609704.0,16032
1195.33,1.59587,617215.0,15652
1198.9,1.61224,624471.0,15250
1202.48,1.62753,632472.0,14911
1206.04,1.65262,640381.0,14250
1209.61,1.65912,648161.0,14209
1214.35,1.671064,659999.0,14076
1217.9,1.6621,668609.0,14557
1221.45,1.6595,677405.0,14837
1224.99,1.62817,686281.0,16156
1228.53,1.62038,695317.0,16665
1232.07,1.59207,704063.0,18011
1235.6,1.58922,713007.0,18360
1239.13,1.56863,721330.0,19476
1242.65,1.5665,730030.0,19808
1246.17,1.55124,737591.0,20729
1250.85,1.55029,746809.0,21034
1254.36,1.539969,753336.0,21728
1257.86,1.53641,759907.0,22098
1261.36,1.5374,766538.0,22240
1264.86,1.53238,774802.0,22741
1268.35,1.53351,784025.0,22952
1271.83,1.53538,794336.0,23154
1275.32,1.53827,804198.0,23286
1278.79,1.53312,813836.0,23846
1282.27,1.531701,823595.0,24211
1286.89,1.53295,834533.0,24462
1290.36,1.534253,842581.0,24624
1293.81,1.530514,849301.0,25035
1297.27,1.52866,856026.0,25341
1300.72,1.53128,862498.0,25379
1304.17,1.52576,868068.0,25870
1307.61,1.52731,872869.0,25920
1311.05,1.53052,877616.0,25869
1314.48,1.52986,881872.0,26034
1317.91,1.53296,885520.0,25956
1322.47,1.529335,888917.0,26274
1325.89,1.5251,891687.0,26614
1329.31,1.52837,894001.0,26483
1332.72,1.52894,895438.0,26491
1336.12,1.5358,896641.0,26111
1339.52,1.53168,897974.0,26399
1342.92,1.53494,898777.0,26225
1346.31,1.53424,898783.0,26267
1349.7,1.5372,898350.0,26076
1353.09,1.5371,896784.0,26037
1357.59,1.53846,895293.0,25912
1360.97,1.53715,892755.0,25917
1364.34,1.5456,890430.0,25351
1367.7,1.558378,888504.0,24563
1371.06,1.560956,885825.0,24344
1374.42,1.5619,881046.0,24160
1377.77,1.56742,874030.0,23665
1381.12,1.5798,865751.0,22782
1384.47,1.59743,857799.0,21675
1387.81,1.61506,851759.0,20666
1392.25,1.64403,846500.0,19213
1395.58,1.63875,843622.0,19382
1398.91,1.63778,841228.0,19370
1402.23,1.61991,838489.0,20118
1405.55,1.63094,836065.0,19557
1408.86,1.62675,834396.0,19707
1412.17,1.63971,832187.0,19077
1415.47,1.64188,830123.0,18935
1418.77,1.6583,828244.0,18191
1422.07,1.64388,827314.0,18784
1426.45,1.64337,826435.0,18786
1429.74,1.64153,825475.0,18844
1433.02,1.65692,824938.0,18176
1436.29,1.64918,823959.0,18481
1439.57,1.642346,823822.0,18771
1442.83,1.639104,823184.0,18897
1446.1,1.63062,821953.0,19241
1449.36,1.61907,821135.0,19740
1452.61,1.627833,819413.0,19305
1455.86,1.61046,817492.0,20046
1459.11,1.613083,814862.0,19861
1463.43,1.60823,811075.0,19991
1466.67,1.61035,807671.0,19810
1469.9,1.59871,803699.0,20248
1473.13,1.59413,799396.0,20353
1476.35,1.592749,795129.0,20309
1479.57,1.58438,790127.0,20574
1482.78,1.58067,784937.0,20614
1486,1.58552,779544.0,20245
1489.2,1.58189,773733.0,20263
1492.4,1.5869,767463.0,19868
1496.67,1.57409,758614.0,20227
1499.86,1.57533,751802.0,19988
1503.04,1.57905,744297.0,19620
1506.23,1.575142,735980.0,19576
1509.41,1.57088,728040.0,19556
1512.58,1.57808,719703.0,19014
1515.75,1.5813,710982.0,18645
1518.92,1.57768,702409.0,18574
1522.08,1.57221,693280.0,18565
1525.24,1.580346,683935.0,17975
1529.44,1.57899,671492.0,17703
1532.59,1.58805,661352.0,17076
1535.73,1.57962,650841.0,17134
1538.87,1.576988,640156.0,16955
1542,1.58027,629036.0,16535
1545.13,1.582937,617445.0,16131
1548.26,1.57525,605527.0,16102
1551.38,1.57809,594133.0,15696
1554.49,1.57174,582894.0,15626
1557.61,1.56687,571271.0,15487
1561.75,1.56946,555940.0,14982
1564.85,1.57059,544812.0,14644
1567.95,1.55381,533402.0,14902
1571.05,1.56703,521915.0,14144
1574.14,1.55693,510788.0,14168
1577.22,1.558089,499607.0,13821
1580.3,1.55564,487992.0,13576
1583.38,1.55606,476265.0,13237
1586.45,1.57508,464618.0,12360
1589.52,1.55466,452782.0,12625
1593.6,1.55359,436897.0,12212
1596.66,1.55969,425551.0,11729
1599.71,1.55383,414191.0,11571
1602.76,1.54693,402799.0,11433
1605.81,1.53681,391352.0,11370
1608.85,1.55307,380811.0,10657
1611.89,1.54959,370076.0,10440
1614.92,1.566342,359798.0,9766
1617.95,1.551583,349165.0,9805
1620.97,1.55038,338717.0,9538
1624.99,1.55697,325435.0,9026
1628.01,1.5562,315463.0,8765
1631.02,1.5695,305570.0,8234
1634.02,1.554857,295762.0,8243
1637.02,1.55515,286306.0,7974
1640.02,1.58425,276696.0,7207
1643.01,1.55146,267004.0,7500
1646,1.55817,257531.0,7123
1648.98,1.54306,247817.0,7097
1651.96,1.56253,238547.0,6532
1655.93,1.55302,225092.0,6300
1658.89,1.6093,214425.0,5272
1661.86,1.57364,202241.0,5398
1664.82,1.5973,188046.0,4753
1667.78,1.5895,171566.0,4415
1670.73,1.63684,154101.0,3556
1673.67,1.59116,134892.0,3458
1676.62,1.55868,115325.0,3186
1679.56,1.564666,97255.0,2650
1682.49,1.62279,81017.0,1931
1686.4,1.51233,63571.0,1954
1689.32,1.57752,53566.0,1417
1692.24,1.52922,45493.0,1345
1695.16,1.51429,39217.0,1200
1698.07,1.72412,33537.0,633
1700.97,1.73825,29118.0,532