Folder: Dorgan_Laubach_Research/Data/LDPE

Note: README.md
# Dorgan_Laubach_Research

File: LDPE1_Column 1_20211230_112130.csv
***Scan Config Information***,,,,,,,***Reference Scan Information***,,,,,,,,
Scan Config Name:,Column 1,,,,,,Scan Config Name:,Built-in Factory Reference,,,,,,
Scan Config Type:,Slew,Num Section:,1,,,,Scan Config Type:,Slew,Num Section:,1,,,,,
Section Config Type:,Column,,,,,,Section Config Type:,Column,,,,,,,
Start Wavelength (nm):,900,,,,,,Start Wavelength (nm):,900.0,,,,,,
End Wavelength (nm):,1700,,,,,,End Wavelength (nm):,1700.0,,,,,,
Pattern Width (nm):,7.03,,,,,,Pattern Width (nm):,7.03,,,,,,,
Exposure (ms):,0.635,,,,,,Exposure (ms):,0.635,,,,,,,
Digital Resolution:,228,,,,,,Digital Resolution:,228,,,,,,,
Num Repeats:,6,,,,,,Num Repeats:,30,,,,,,,
PGA Gain:,64,,,,,,PGA Gain:,64,,,,,,
System Temp (C):,19.26,,,,,,System Temp (C):,24.17,,,,,,,
Humidity (%):,41.0,,,,,,Humidity (%):,30.0,,,,,,
Battery Capacity (%):,65,,,,,,Lamp Intensity:,2449,,,,,,,
Lamp Intensity:,2441,,,,,,Data Date-Time:,19/12/12T12:44:54,,,,,,
Data Date-Time:,18/1/1T7:0:49,,,,,,,,,,,,,,
Total Measurement Time in sec:,4.398,,,,,,,,,,,,,
***General Information***,,,,,,,***Calibration Coefficients***,,,,,,,,
Model Name:,NIR-S-G1,,,,,,Shift Vector Coefficients:,-8.44101,0.0554567,-8.45244e-05,,,,,
Serial Number:,947R055,95UB122GC0A947R055,,,,,Pixel to Wavelength Coefficients:,1795.87,-0.92014,-0.00023961,,,,,
APP Version:,2.16.7,,,,,,,,,,,,,
TIVA Version:,2.4.4,,,,,,***Lamp Usage * **,,,,,,,,
UUID:,de:67:c:88:67:2c:2d:21,,,,,,Total Time(HH:MM:SS):,12min 8sec ,,,,,,,
Main Board Version:,D,,,,,,***Device/Error Status***,,,,,,,,
Detector Board Version:,B,,,,,,Device Status:,0x00000031,,,,,,
,,,,,,,Error status:,0x00000000,Error Code:,0x00000000000000000000000000000000,,,,,
,,,,,,,,,Error Details:,Not Found,,,,,
***Scan Data***,,,,,,,,,,,,,,,
Wavelength (nm),Absorbance (AU),Reference Signal (unitless),Sample Signal (unitless)
901.841,1.327486,99968.0,4703
905.754,1.35643,108993.0,4797
909.663,1.338483,118185.0,5421
913.568,1.34158,129285.0,5888
917.469,1.3513,143347.0,6384
921.365,1.33831,160437.0,7362
925.257,1.32531,180387.0,8529
929.144,1.3635,201426.0,8722
933.028,1.36804,220694.0,9457
936.906,1.35291,237501.0,10538
942.072,1.35387,256956.0,11376
945.94,1.33492,270636.0,12516
949.805,1.3551,283621.0,12521
953.665,1.3389,296982.0,13609
957.521,1.34825,310733.0,13936
961.373,1.34862,324587.0,14545
965.22,1.347962,339205.0,15223
969.063,1.3525,353669.0,15707
972.902,1.34314,368253.0,16711
976.736,1.35388,382531.0,16935
981.842,1.361528,399901.0,17395
985.666,1.35507,411528.0,18169
989.486,1.359615,422199.0,18446
993.302,1.35982,431172.0,18829
997.113,1.35538,438051.0,19326
1000.92,1.36278,444216.0,19267
1004.72,1.36571,449307.0,19357
1008.52,1.37004,453601.0,19348
1012.32,1.361551,456801.0,19869
1016.11,1.37218,459312.0,19495
1021.15,1.37305,461643.0,19555
1024.93,1.36804,463069.0,19843
1028.71,1.37195,463868.0,19699
1032.48,1.38178,464326.0,19277
1036.24,1.38822,466001.0,19062
1040.01,1.39072,466870.0,18988
1043.77,1.39078,467033.0,18992
1047.52,1.39622,467045.0,18756
1051.27,1.39541,467467.0,18808
1055.01,1.38549,467627.0,19249
1060,1.40974,468351.0,18232
1063.74,1.39103,469050.0,19063
1067.47,1.39378,469880.0,18976
1071.19,1.38941,471228.0,19223
1074.92,1.40806,472558.0,18467
1078.63,1.40934,474087.0,18472
1082.35,1.40434,476569.0,18784
1086.06,1.41034,479445.0,18638
1089.76,1.410823,481756.0,18707
1093.46,1.40671,485147.0,19018
1098.39,1.414,489755.0,18879
1102.08,1.412785,493535.0,19078
1105.77,1.410609,497426.0,19325
1109.45,1.42003,501308.0,19058
1113.13,1.42347,505725.0,19074
1116.8,1.423346,509421.0,19219
1120.47,1.41603,513217.0,19691
1124.13,1.43575,517470.0,18973
1127.79,1.430597,521690.0,19356
1131.45,1.42711,526099.0,19677
1136.32,1.42938,531329.0,19769
1139.96,1.42986,535549.0,19904
1143.61,1.44265,539808.0,19480
1147.24,1.44687,543900.0,19438
1150.88,1.4436,547908.0,19729
1154.5,1.46229,552170.0,19045
1158.13,1.459761,556773.0,19316
1161.75,1.47769,561098.0,18679
1165.36,1.48735,565898.0,18424
1168.98,1.49009,571300.0,18483
1172.58,1.49866,576602.0,18290
1177.39,1.51293,584320.0,17936
1180.98,1.52913,589396.0,17429
1184.58,1.52097,596143.0,17963
1188.16,1.54309,602955.0,17266
1191.75,1.55716,609704.0,16903
1195.33,1.55973,617215.0,17010
1198.9,1.58928,624471.0,16078
1202.48,1.60227,632472.0,15804
1206.04,1.61937,640381.0,15384
1209.61,1.65429,648161.0,14368
1214.35,1.659285,659999.0,14463
1217.9,1.6419,668609.0,15250
1221.45,1.62418,677405.0,16094
1224.99,1.60654,686281.0,16981
1228.53,1.58135,695317.0,18232
1232.07,1.56422,704063.0,19204
1235.6,1.54436,713007.0,20358
1239.13,1.53901,721330.0,20851
1242.65,1.52877,730030.0,21606
1246.17,1.51005,737591.0,22791
1250.85,1.508,746809.0,23185
1254.36,1.5022,753336.0,23702
1257.86,1.51041,759907.0,23461
1261.36,1.49127,766538.0,24732
1264.86,1.497744,774802.0,24629
1268.35,1.49345,784025.0,25170
1271.83,1.49143,794336.0,25620
1275.32,1.49513,804198.0,25718
1278.79,1.48043,813836.0,26922
1282.27,1.49247,823595.0,26500
1286.89,1.49255,834533.0,26847
1290.36,1.49192,842581.0,27145
1293.81,1.4891,849301.0,27540
1297.27,1.48786,856026.0,27837
1300.72,1.48862,862498.0,27999
1304.17,1.48812,868068.0,28212
1307.61,1.48426,872869.0,28621
1311.05,1.49232,877616.0,28248
1314.48,1.49023,881872.0,28522
1317.91,1.49405,885520.0,28389
1322.47,1.48468,888917.0,29119
1325.89,1.48262,891687.0,29349
1329.31,1.49499,894001.0,28599
1332.72,1.49028,895438.0,28957
1336.12,1.49261,896641.0,28841
1339.52,1.49085,897974.0,29001
1342.92,1.49444,898777.0,28788
1346.31,1.49175,898783.0,28967
1349.7,1.50074,898350.0,28360
1353.09,1.49702,896784.0,28554
1357.59,1.49208,895293.0,28833
1360.97,1.50018,892755.0,28220
1364.34,1.50894,890430.0,27584
1367.7,1.51344,888504.0,27241
1371.06,1.51892,885825.0,26818
1374.42,1.52154,881046.0,26513
1377.77,1.53346,874030.0,25590
1381.12,1.54029,865751.0,24952
1384.47,1.56545,857799.0,23331
1387.81,1.57335,851759.0,22749
1392.25,1.59693,846500.0,21414
1395.58,1.600017,843622.0,21190
1398.91,1.59835,841228.0,21211
1402.23,1.59047,838489.0,21529
1405.55,1.58901,836065.0,21539
1408.86,1.58599,834396.0,21646
1412.17,1.59337,832187.0,21225
1415.47,1.60913,830123.0,20418
1418.77,1.60564,828244.0,20536
1422.07,1.607721,827314.0,20415
1426.45,1.60486,826435.0,20528
1429.74,1.59542,825475.0,20955
1433.02,1.59921,824938.0,20759
1436.29,1.59584,823959.0,20896
1439.57,1.60047,823822.0,20671
1442.83,1.58647,823184.0,21332
1446.1,1.59026,821953.0,21115
1449.36,1.58155,821135.0,21521
1452.61,1.56508,819413.0,22306
1455.86,1.57879,817492.0,21562
1459.11,1.55898,814862.0,22496
1463.43,1.5592,811075.0,22380
1466.67,1.55127,807671.0,22697
1469.9,1.54598,803699.0,22862
1473.13,1.55012,799396.0,22524
1476.35,1.54275,795129.0,22787
1479.57,1.53967,790127.0,22805
1482.78,1.530509,784937.0,23138
1486,1.53627,779544.0,22676
1489.2,1.52993,773733.0,22838
1492.4,1.53483,767463.0,22399
1496.67,1.53226,758614.0,22272
1499.86,1.5265,751802.0,22367
1503.04,1.52412,744297.0,22265
1506.23,1.52654,735980.0,21894
1509.41,1.5258,728040.0,21695
1512.58,1.522579,719703.0,21606
1515.75,1.53051,710982.0,20958
1518.92,1.523854,702409.0,21025
1522.08,1.52064,693280.0,20906
1525.24,1.536664,683935.0,19877
1529.44,1.52906,671492.0,19860
1532.59,1.52641,661352.0,19680
1535.73,1.53358,650841.0,19050
1538.87,1.53148,640156.0,18828
1542,1.52823,629036.0,18640
1545.13,1.535157,617445.0,18007
1548.26,1.53561,605527.0,17641
1551.38,1.51876,594133.0,17994
1554.49,1.51838,582894.0,17669
1557.61,1.5119,571271.0,17577
1561.75,1.51686,555940.0,16911
1564.85,1.5209,544812.0,16419
1567.95,1.52356,533402.0,15977
1571.05,1.52724,521915.0,15501
1574.14,1.50551,510788.0,15949
1577.22,1.51819,499607.0,15151
1580.3,1.51572,487992.0,14883
1583.38,1.50234,476265.0,14980
1586.45,1.51775,464618.0,14104
1589.52,1.51904,452782.0,13704
1593.6,1.5242,436897.0,13067
1596.66,1.51712,425551.0,12937
1599.71,1.5188,414191.0,12543
1602.76,1.5199,402799.0,12167
1605.81,1.50831,391352.0,12141
1608.85,1.51193,380811.0,11716
1611.89,1.51733,370076.0,11245
1614.92,1.51625,359798.0,10960
1617.95,1.51846,349165.0,10582
1620.97,1.53088,338717.0,9976
1624.99,1.53671,325435.0,9457
1628.01,1.51695,315463.0,9594
1631.02,1.534892,305570.0,8917
1634.02,1.52918,295762.0,8745
1637.02,1.52563,286306.0,8535
1640.02,1.51876,276696.0,8380
1643.01,1.52294,267004.0,8009
1646,1.53519,257531.0,7510
1648.98,1.52998,247817.0,7314
1651.96,1.52883,238547.0,7059
1655.93,1.52557,225092.0,6711
1658.89,1.53707,214425.0,6226
1661.86,1.55846,202241.0,5590
1664.82,1.58629,188046.0,4875
1667.78,1.57843,171566.0,4529
1670.73,1.56715,154101.0,4175
1673.67,1.59864,134892.0,3399
1676.62,1.65983,115325.0,2524
1679.56,1.64431,97255.0,2206
1682.49,1.61082,81017.0,1985
1686.4,1.62313,63571.0,1514
1689.32,1.735453,53566.0,985
1692.24,1.65191,45493.0,1014
1695.16,1.96102,39217.0,429
1698.07,1.75467,33537.0,590
1700.97,1.8368,29118.0,424

File: LDPE2_Column 1_20211230_112150.csv
***Scan Config Information***,,,,,,,***Reference Scan Information***,,,,,,,,
Scan Config Name:,Column 1,,,,,,Scan Config Name:,Built-in Factory Reference,,,,,,
Scan Config Type:,Slew,Num Section:,1,,,,Scan Config Type:,Slew,Num Section:,1,,,,,
Section Config Type:,Column,,,,,,Section Config Type:,Column,,,,,,,
Start Wavelength (nm):,900,,,,,,Start Wavelength (nm):,900.0,,,,,,
End Wavelength (nm):,1700,,,,,,End Wavelength (nm):,1700.0,,,,,,
Pattern Width (nm):,7.03,,,,,,Pattern Width (nm):,7.03,,,,,,,
Exposure (ms):,0.635,,,,,,Exposure (ms):,0.635,,,,,,,
Digital Resolution:,228,,,,,,Digital Resolution:,228,,,,,,,
Num Repeats:,6,,,,,,Num Repeats:,30,,,,,,,
PGA Gain:,64,,,,,,PGA Gain:,64,,,,,,
System Temp (C):,19.77,,,,,,System Temp (C):,24.17,,,,,,,
Humidity (%):,40.79,,,,,,Humidity (%):,30.0,,,,,,
Battery Capacity (%):,64,,,,,,Lamp Intensity:,2449,,,,,,,
Lamp Intensity:,2445,,,,,,Data Date-Time:,19/12/12T12:44:54,,,,,,
Data Date-Time:,18/1/1T7:1:8,,,,,,,,,,,,,,
Total Measurement Time in sec:,4.162,,,,,,,,,,,,,
***General Information***,,,,,,,***Calibration Coefficients***,,,,,,,,
Model Name:,NIR-S-G1,,,,,,Shift Vector Coefficients:,-8.44101,0.0554567,-8.45244e-05,,,,,
Serial Number:,947R055,95UB122GC0A947R055,,,,,Pixel to Wavelength Coefficients:,1795.87,-0.92014,-0.00023961,,,,,
APP Version:,2.16.7,,,,,,,,,,,,,
TIVA Version:,2.4.4,,,,,,***Lamp Usage * **,,,,,,,,
UUID:,de:67:c:88:67:2c:2d:21,,,,,,Total Time(HH:MM:SS):,12min 10sec ,,,,,,,
Main Board Version:,D,,,,,,***Device/Error Status***,,,,,,,,
Detector Board Version:,B,,,,,,Device Status:,0x00000031,,,,,,
,,,,,,,Error status:,0x00000000,Error Code:,0x00000000000000000000000000000000,,,,,
,,,,,,,,,Error Details:,Not Found,,,,,
***Scan Data***,,,,,,,,,,,,,,,
Wavelength (nm),Absorbance (AU),Reference Signal (unitless),Sample Signal (unitless)
901.841,1.57859,99968.0,2638
905.754,1.58885,108993.0,2809
909.663,1.60039,118185.0,2966
913.568,1.61241,129285.0,3156
917.469,1.55618,143347.0,3983
921.365,1.59828,160437.0,4046
925.257,1.58875,180387.0,4650
929.144,1.63704,201426.0,4646
933.028,1.61204,220694.0,5392
936.906,1.615771,237501.0,5753
942.072,1.60565,256956.0,6371
945.94,1.63112,270636.0,6328
949.805,1.5887,283621.0,7312
953.665,1.59894,296982.0,7478
957.521,1.59957,310733.0,7813
961.373,1.60204,324587.0,8115
965.22,1.59977,339205.0,8525
969.063,1.58894,353669.0,9113
972.902,1.63124,368253.0,8608
976.736,1.61997,382531.0,9177
981.842,1.61716,399901.0,9656
985.666,1.61645,411528.0,9953
989.486,1.61429,422199.0,10262
993.302,1.6172,431172.0,10410
997.113,1.610844,438051.0,10732
1000.92,1.612645,444216.0,10838
1004.72,1.62536,449307.0,10646
1008.52,1.616309,453601.0,10974
1012.32,1.61873,456801.0,10990
1016.11,1.62464,459312.0,10901
1021.15,1.63213,461643.0,10769
1024.93,1.62818,463069.0,10901
1028.71,1.63116,463868.0,10845
1032.48,1.64267,464326.0,10572
1036.24,1.63799,466001.0,10725
1040.01,1.64091,466870.0,10673
1043.77,1.64425,467033.0,10595
1047.52,1.63896,467045.0,10725
1051.27,1.64224,467467.0,10654
1055.01,1.65049,467627.0,10457
1060,1.6545,468351.0,10377
1063.74,1.64236,469050.0,10687
1067.47,1.65146,469880.0,10484
1071.19,1.65708,471228.0,10379
1074.92,1.63803,472558.0,10875
1078.63,1.64753,474087.0,10674
1082.35,1.65376,476569.0,10577
1086.06,1.66241,479445.0,10431
1089.76,1.66923,481756.0,10318
1093.46,1.65366,485147.0,10770
1098.39,1.660595,489755.0,10700
1102.08,1.65813,493535.0,10844
1105.77,1.65727,497426.0,10951
1109.45,1.65733,501308.0,11035
1113.13,1.66288,505725.0,10991
1116.8,1.67229,509421.0,10834
1120.47,1.663962,513217.0,11126
1124.13,1.67269,517470.0,10995
1127.79,1.68504,521690.0,10774
1131.45,1.687,526099.0,10816
1136.32,1.68177,531329.0,11056
1139.96,1.69173,535549.0,10891
1143.61,1.67828,539808.0,11323
1147.24,1.69666,543900.0,10936
1150.88,1.715867,547908.0,10540
1154.5,1.70744,552170.0,10830
1158.13,1.70841,556773.0,10896
1161.75,1.736328,561098.0,10297
1165.36,1.73734,565898.0,10361
1168.98,1.73808,571300.0,10442
1172.58,1.73438,576602.0,10629
1177.39,1.73617,584320.0,10727
1180.98,1.77644,589396.0,9862
1184.58,1.76978,596143.0,10129
1188.16,1.79356,602955.0,9699
1191.75,1.81019,609704.0,9439
1195.33,1.792657,617215.0,9949
1198.9,1.797471,624471.0,9955
1202.48,1.85111,632472.0,8911
1206.04,1.845825,640381.0,9133
1209.61,1.86557,648161.0,8833
1214.35,1.857032,659999.0,9173
1217.9,1.87413,668609.0,8934
1221.45,1.858044,677405.0,9393
1224.99,1.82181,686281.0,10344
1228.53,1.80595,695317.0,10870
1232.07,1.80673,704063.0,10987
1235.6,1.79002,713007.0,11563
1239.13,1.772451,721330.0,12181
1242.65,1.76411,730030.0,12567
1246.17,1.76703,737591.0,12612
1250.85,1.73462,746809.0,13759
1254.36,1.74992,753336.0,13399
1257.86,1.73912,759907.0,13856
1261.36,1.75714,766538.0,13409
1264.86,1.74325,774802.0,13994
1268.35,1.751,784025.0,13910
1271.83,1.7355,794336.0,14605
1275.32,1.733929,804198.0,14840
1278.79,1.73369,813836.0,15026
1282.27,1.7287,823595.0,15382
1286.89,1.73401,834533.0,15397
1290.36,1.73548,842581.0,15493
1293.81,1.743973,849301.0,15314
1297.27,1.74754,856026.0,15309
1300.72,1.7421,862498.0,15619
1304.17,1.73238,868068.0,16076
1307.61,1.742182,872869.0,15804
1311.05,1.73069,877616.0,16316
1314.48,1.73498,881872.0,16234
1317.91,1.74037,885520.0,16100
1322.47,1.73561,888917.0,16340
1325.89,1.73664,891687.0,16352
1329.31,1.73628,894001.0,16408
1332.72,1.73719,895438.0,16400
1336.12,1.73487,896641.0,16510
1339.52,1.739507,897974.0,16359
1342.92,1.73386,898777.0,16588
1346.31,1.73921,898783.0,16385
1349.7,1.745058,898350.0,16158
1353.09,1.751482,896784.0,15893
1357.59,1.74912,895293.0,15953
1360.97,1.755054,892755.0,15692
1364.34,1.763916,890430.0,15335
1367.7,1.75376,888504.0,15664
1371.06,1.75952,885825.0,15411
1374.42,1.77759,881046.0,14703
1377.77,1.78328,874030.0,14396
1381.12,1.79189,865751.0,13980
1384.47,1.79994,857799.0,13597
1387.81,1.83033,851759.0,12589
1392.25,1.84266,846500.0,12161
1395.58,1.8443,843622.0,12074
1398.91,1.83713,841228.0,12240
1402.23,1.80962,838489.0,12998
1405.55,1.82787,836065.0,12427
1408.86,1.8276,834396.0,12410
1412.17,1.83898,832187.0,12057
1415.47,1.82569,830123.0,12401
1418.77,1.83606,828244.0,12081
1422.07,1.84808,827314.0,11738
1426.45,1.8359,826435.0,12059
1429.74,1.8424,825475.0,11866
1433.02,1.83378,824938.0,12096
1436.29,1.84635,823959.0,11737
1439.57,1.83011,823822.0,12182
1442.83,1.81998,823184.0,12460
1446.1,1.82834,821953.0,12204
1449.36,1.80887,821135.0,12751
1452.61,1.81282,819413.0,12609
1455.86,1.82219,817492.0,12311
1459.11,1.799452,814862.0,12931
1463.43,1.81021,811075.0,12556
1466.67,1.79867,807671.0,12840
1469.9,1.79302,803699.0,12944
1473.13,1.790157,799396.0,12960
1476.35,1.77786,795129.0,13261
1479.57,1.78751,790127.0,12888
1482.78,1.7936,784937.0,12625
1486,1.78294,779544.0,12850
1489.2,1.78192,773733.0,12784
1492.4,1.77893,767463.0,12768
1496.67,1.77281,758614.0,12800
1499.86,1.771753,751802.0,12716
1503.04,1.77442,744297.0,12512
1506.23,1.77898,735980.0,12243
1509.41,1.76203,728040.0,12593
1512.58,1.78164,719703.0,11899
1515.75,1.76768,710982.0,12139
1518.92,1.76879,702409.0,11962
1522.08,1.76789,693280.0,11831
1525.24,1.76598,683935.0,11723
1529.44,1.77151,671492.0,11364
1532.59,1.77075,661352.0,11212
1535.73,1.75665,650841.0,11398
1538.87,1.78004,640156.0,10623
1542,1.77873,629036.0,10470
1545.13,1.77688,617445.0,10321
1548.26,1.77635,605527.0,10134
1551.38,1.764943,594133.0,10208
1554.49,1.75874,582894.0,10159
1557.61,1.75632,571271.0,10012
1561.75,1.7648,555940.0,9555
1564.85,1.749654,544812.0,9696
1567.95,1.74438,533402.0,9609
1571.05,1.760184,521915.0,9066
1574.14,1.75914,510788.0,8894
1577.22,1.75026,499607.0,8879
1580.3,1.75741,487992.0,8531
1583.38,1.76008,476265.0,8275
1586.45,1.76249,464618.0,8028
1589.52,1.753125,452782.0,7994
1593.6,1.74806,436897.0,7804
1596.66,1.74506,425551.0,7654
1599.71,1.75269,414191.0,7320
1602.76,1.749206,402799.0,7176
1605.81,1.74033,391352.0,7116
1608.85,1.76018,380811.0,6615
1611.89,1.72618,370076.0,6952
1614.92,1.746028,359798.0,6457
1617.95,1.73523,349165.0,6424
1620.97,1.74722,338717.0,6062
1624.99,1.72465,325435.0,6135
1628.01,1.71942,315463.0,6019
1631.02,1.749991,305570.0,5434
1634.02,1.74,295762.0,5382
1637.02,1.728964,286306.0,5344
1640.02,1.74312,276696.0,4999
1643.01,1.74809,267004.0,4769
1646,1.74058,257531.0,4680
1648.98,1.72724,247817.0,4644
1651.96,1.741387,238547.0,4327
1655.93,1.71839,225092.0,4305
1658.89,1.7411,214425.0,3892
1661.86,1.77593,202241.0,3388
1664.82,1.79859,188046.0,2990
1667.78,1.73681,171566.0,3145
1670.73,1.78589,154101.0,2523
1673.67,1.74313,134892.0,2437
1676.62,1.78089,115325.0,1910
1679.56,1.70258,97255.0,1929
1682.49,1.706906,81017.0,1591
1686.4,1.970112,63571.0,681
1689.32,1.57447,53566.0,1427
1692.24,1.79581,45493.0,728
1695.16,1.78729,39217.0,640
1698.07,1.65865,33537.0,736
1700.97,1.79764,29118.0,464