Folder: Dorgan_Laubach_Research/Data/LDPE (part 4)

File: LDPE7_Column 1_20211230_112308.csv
***Scan Config Information***,,,,,,,***Reference Scan Information***,,,,,,,,
Scan Config Name:,Column 1,,,,,,Scan Config Name:,Built-in Factory Reference,,,,,,
Scan Config Type:,Slew,Num Section:,1,,,,Scan Config Type:,Slew,Num Section:,1,,,,,
Section Config Type:,Column,,,,,,Section Config Type:,Column,,,,,,,
Start Wavelength (nm):,900,,,,,,Start Wavelength (nm):,900.0,,,,,,
End Wavelength (nm):,1700,,,,,,End Wavelength (nm):,1700.0,,,,,,
Pattern Width (nm):,7.03,,,,,,Pattern Width (nm):,7.03,,,,,,,
Exposure (ms):,0.635,,,,,,Exposure (ms):,0.635,,,,,,,
Digital Resolution:,228,,,,,,Digital Resolution:,228,,,,,,,
Num Repeats:,6,,,,,,Num Repeats:,30,,,,,,,
PGA Gain:,64,,,,,,PGA Gain:,64,,,,,,
System Temp (C):,21.37,,,,,,System Temp (C):,24.17,,,,,,,
Humidity (%):,40.81,,,,,,Humidity (%):,30.0,,,,,,
Battery Capacity (%):,62,,,,,,Lamp Intensity:,2449,,,,,,,
Lamp Intensity:,2468,,,,,,Data Date-Time:,19/12/12T12:44:54,,,,,,
Data Date-Time:,18/1/1T7:2:27,,,,,,,,,,,,,,
Total Measurement Time in sec:,5.165,,,,,,,,,,,,,
***General Information***,,,,,,,***Calibration Coefficients***,,,,,,,,
Model Name:,NIR-S-G1,,,,,,Shift Vector Coefficients:,-8.44101,0.0554567,-8.45244e-05,,,,,
Serial Number:,947R055,95UB122GC0A947R055,,,,,Pixel to Wavelength Coefficients:,1795.87,-0.92014,-0.00023961,,,,,
APP Version:,2.16.7,,,,,,,,,,,,,
TIVA Version:,2.4.4,,,,,,***Lamp Usage * **,,,,,,,,
UUID:,de:67:c:88:67:2c:2d:21,,,,,,Total Time(HH:MM:SS):,12min 21sec ,,,,,,,
Main Board Version:,D,,,,,,***Device/Error Status***,,,,,,,,
Detector Board Version:,B,,,,,,Device Status:,0x00000031,,,,,,
,,,,,,,Error status:,0x00000000,Error Code:,0x00000000000000000000000000000000,,,,,
,,,,,,,,,Error Details:,Not Found,,,,,
***Scan Data***,,,,,,,,,,,,,,,
Wavelength (nm),Absorbance (AU),Reference Signal (unitless),Sample Signal (unitless)
901.841,1.43107,99968.0,3705
905.754,1.45002,108993.0,3867
909.663,1.43648,118185.0,4326
913.568,1.42002,129285.0,4915
917.469,1.47605,143347.0,4790
921.365,1.41054,160437.0,6234
925.257,1.44557,180387.0,6466
929.144,1.42853,201426.0,7509
933.028,1.44677,220694.0,7889
936.906,1.44147,237501.0,8594
942.072,1.45082,256956.0,9100
945.94,1.45093,270636.0,9582
949.805,1.43612,283621.0,10390
953.665,1.43383,296982.0,10937
957.521,1.44031,310733.0,11274
961.373,1.42217,324587.0,12279
965.22,1.42902,339205.0,12631
969.063,1.436797,353669.0,12936
972.902,1.43539,368253.0,13513
976.736,1.42879,382531.0,14252
981.842,1.442235,399901.0,14445
985.666,1.44142,411528.0,14893
989.486,1.43992,422199.0,15332
993.302,1.45087,431172.0,15268
997.113,1.45494,438051.0,15367
1000.92,1.44789,444216.0,15838
1004.72,1.44653,449307.0,16070
1008.52,1.45533,453601.0,15898
1012.32,1.457484,456801.0,15931
1016.11,1.46748,459312.0,15654
1021.15,1.45651,461643.0,16136
1024.93,1.46765,463069.0,15776
1028.71,1.46222,463868.0,16002
1032.48,1.47101,464326.0,15697
1036.24,1.46503,466001.0,15972
1040.01,1.47766,466870.0,15543
1043.77,1.47994,467033.0,15467
1047.52,1.467443,467045.0,15919
1051.27,1.48948,467467.0,15145
1055.01,1.48808,467627.0,15199
1060,1.49972,468351.0,14820
1063.74,1.48958,469050.0,15193
1067.47,1.48348,469880.0,15435
1071.19,1.48661,471228.0,15368
1074.92,1.49233,472558.0,15210
1078.63,1.50256,474087.0,14904
1082.35,1.50004,476569.0,15069
1086.06,1.50491,479445.0,14991
1089.76,1.50717,481756.0,14985
1093.46,1.494143,485147.0,15550
1098.39,1.50834,489755.0,15193
1102.08,1.51801,493535.0,14973
1105.77,1.51076,497426.0,15345
1109.45,1.50437,501308.0,15694
1113.13,1.511319,505725.0,15581
1116.8,1.50606,509421.0,15886
1120.47,1.51618,513217.0,15636
1124.13,1.51416,517470.0,15839
1127.79,1.50889,521690.0,16163
1131.45,1.5143,526099.0,16098
1136.32,1.5148,531329.0,16239
1139.96,1.519311,535549.0,16199
1143.61,1.53482,539808.0,15755
1147.24,1.53659,543900.0,15810
1150.88,1.53172,547908.0,16106
1154.5,1.5443,552170.0,15768
1158.13,1.54527,556773.0,15864
1161.75,1.56557,561098.0,15257
1165.36,1.56881,565898.0,15273
1168.98,1.57112,571300.0,15337
1172.58,1.58982,576602.0,14827
1177.39,1.586984,584320.0,15124
1180.98,1.598827,589396.0,14845
1184.58,1.61061,596143.0,14613
1188.16,1.62751,602955.0,14216
1191.75,1.63636,609704.0,14085
1195.33,1.65413,617215.0,13687
1198.9,1.67547,624471.0,13184
1202.48,1.684,632472.0,13093
1206.04,1.72033,640381.0,12193
1209.61,1.7422,648161.0,11735
1214.35,1.737081,659999.0,12091
1217.9,1.7341,668609.0,12333
1221.45,1.72073,677405.0,12886
1224.99,1.68376,686281.0,14215
1228.53,1.66335,695317.0,15095
1232.07,1.64409,704063.0,15978
1235.6,1.61035,713007.0,17488
1239.13,1.60405,721330.0,17951
1242.65,1.5912,730030.0,18713
1246.17,1.58397,737591.0,19224
1250.85,1.57665,746809.0,19795
1254.36,1.57687,753336.0,19958
1257.86,1.57577,759907.0,20183
1261.36,1.5641,766538.0,20914
1264.86,1.56425,774802.0,21132
1268.35,1.56012,784025.0,21588
1271.83,1.55756,794336.0,22001
1275.32,1.55605,804198.0,22352
1278.79,1.55868,813836.0,22483
1282.27,1.55086,823595.0,23166
1286.89,1.55731,834533.0,23128
1290.36,1.551854,842581.0,23646
1293.81,1.54869,849301.0,24009
1297.27,1.556056,856026.0,23792
1300.72,1.55629,862498.0,23959
1304.17,1.55243,868068.0,24329
1307.61,1.55077,872869.0,24557
1311.05,1.55716,877616.0,24330
1314.48,1.55546,881872.0,24544
1317.91,1.55224,885520.0,24829
1322.47,1.552383,888917.0,24916
1325.89,1.5484,891687.0,25224
1329.31,1.552357,894001.0,25060
1332.72,1.55036,895438.0,25216
1336.12,1.551908,896641.0,25160
1339.52,1.55236,897974.0,25171
1342.92,1.54955,898777.0,25357
1346.31,1.54657,898783.0,25532
1349.7,1.55822,898350.0,24844
1353.09,1.5512,896784.0,25205
1357.59,1.55495,895293.0,24947
1360.97,1.56042,892755.0,24565
1364.34,1.56498,890430.0,24245
1367.7,1.56295,888504.0,24306
1371.06,1.58035,885825.0,23281
1374.42,1.595352,881046.0,22369
1377.77,1.59371,874030.0,22275
1381.12,1.61091,865751.0,21207
1384.47,1.626746,857799.0,20260
1387.81,1.65445,851759.0,18874
1392.25,1.67618,846500.0,17842
1395.58,1.67641,843622.0,17772
1398.91,1.66506,841228.0,18191
1402.23,1.66176,838489.0,18270
1405.55,1.64649,836065.0,18869
1408.86,1.66925,834396.0,17870
1412.17,1.6751,832187.0,17584
1415.47,1.688183,830123.0,17020
1418.77,1.67903,828244.0,17343
1422.07,1.678371,827314.0,17350
1426.45,1.68052,826435.0,17246
1429.74,1.67129,825475.0,17596
1433.02,1.65927,824938.0,18078
1436.29,1.66585,823959.0,17785
1439.57,1.6648,823822.0,17825
1442.83,1.67318,823184.0,17471
1446.1,1.650596,821953.0,18376
1449.36,1.64243,821135.0,18706
1452.61,1.64194,819413.0,18688
1455.86,1.63154,817492.0,19096
1459.11,1.630392,814862.0,19085
1463.43,1.61714,811075.0,19585
1466.67,1.62355,807671.0,19217
1469.9,1.61147,803699.0,19662
1473.13,1.62102,799396.0,19131
1476.35,1.60485,795129.0,19751
1479.57,1.61187,790127.0,19312
1482.78,1.60229,784937.0,19613
1486,1.59447,779544.0,19832
1489.2,1.59585,773733.0,19622
1492.4,1.5954,767463.0,19483
1496.67,1.58901,758614.0,19544
1499.86,1.59012,751802.0,19319
1503.04,1.59602,744297.0,18868
1506.23,1.58606,735980.0,19090
1509.41,1.58519,728040.0,18922
1512.58,1.59106,719703.0,18454
1515.75,1.5943,710982.0,18095
1518.92,1.58537,702409.0,18248
1522.08,1.58964,693280.0,17835
1525.24,1.59544,683935.0,17361
1529.44,1.60003,671492.0,16866
1532.59,1.58947,661352.0,17020
1535.73,1.596386,650841.0,16485
1538.87,1.60456,640156.0,15912
1542,1.60436,629036.0,15643
1545.13,1.58472,617445.0,16065
1548.26,1.59388,605527.0,15426
1551.38,1.59629,594133.0,15052
1554.49,1.58392,582894.0,15194
1557.61,1.59115,571271.0,14645
1561.75,1.58145,555940.0,14574
1564.85,1.58488,544812.0,14170
1567.95,1.58517,533402.0,13864
1571.05,1.57505,521915.0,13885
1574.14,1.58007,510788.0,13433
1577.22,1.58428,499607.0,13012
1580.3,1.59182,487992.0,12491
1583.38,1.58209,476265.0,12467
1586.45,1.58034,464618.0,12211
1589.52,1.581951,452782.0,11856
1593.6,1.5926,436897.0,11163
1596.66,1.57931,425551.0,11211
1599.71,1.57294,414191.0,11073
1602.76,1.58839,402799.0,10392
1605.81,1.59461,391352.0,9953
1608.85,1.5691,380811.0,10271
1611.89,1.593411,370076.0,9438
1614.92,1.60331,359798.0,8969
1617.95,1.59374,349165.0,8898
1620.97,1.593273,338717.0,8641
1624.99,1.58803,325435.0,8403
1628.01,1.58907,315463.0,8126
1631.02,1.59981,305570.0,7679
1634.02,1.59001,295762.0,7602
1637.02,1.60975,286306.0,7032
1640.02,1.61463,276696.0,6720
1643.01,1.60337,267004.0,6655
1646,1.626926,257531.0,6080
1648.98,1.593208,247817.0,6323
1651.96,1.61146,238547.0,5836
1655.93,1.60909,225092.0,5537
1658.89,1.63387,214425.0,4982
1661.86,1.61267,202241.0,4934
1664.82,1.64302,188046.0,4278
1667.78,1.68188,171566.0,3569
1670.73,1.61984,154101.0,3698
1673.67,1.65913,134892.0,2957
1676.62,1.6694,115325.0,2469
1679.56,1.722151,97255.0,1844
1682.49,1.69057,81017.0,1652
1686.4,1.72083,63571.0,1209
1689.32,1.76181,53566.0,927
1692.24,2.15279,45493.0,320
1695.16,1.97126,39217.0,419
1698.07,NaN,33537.0,-264
1700.97,1.85671,29118.0,405

File: LDPE8_Column 1_20211230_112323.csv
***Scan Config Information***,,,,,,,***Reference Scan Information***,,,,,,,,
Scan Config Name:,Column 1,,,,,,Scan Config Name:,Built-in Factory Reference,,,,,,
Scan Config Type:,Slew,Num Section:,1,,,,Scan Config Type:,Slew,Num Section:,1,,,,,
Section Config Type:,Column,,,,,,Section Config Type:,Column,,,,,,,
Start Wavelength (nm):,900,,,,,,Start Wavelength (nm):,900.0,,,,,,
End Wavelength (nm):,1700,,,,,,End Wavelength (nm):,1700.0,,,,,,
Pattern Width (nm):,7.03,,,,,,Pattern Width (nm):,7.03,,,,,,,
Exposure (ms):,0.635,,,,,,Exposure (ms):,0.635,,,,,,,
Digital Resolution:,228,,,,,,Digital Resolution:,228,,,,,,,
Num Repeats:,6,,,,,,Num Repeats:,30,,,,,,,
PGA Gain:,64,,,,,,PGA Gain:,64,,,,,,
System Temp (C):,21.66,,,,,,System Temp (C):,24.17,,,,,,,
Humidity (%):,40.89,,,,,,Humidity (%):,30.0,,,,,,
Battery Capacity (%):,62,,,,,,Lamp Intensity:,2449,,,,,,,
Lamp Intensity:,2472,,,,,,Data Date-Time:,19/12/12T12:44:54,,,,,,
Data Date-Time:,18/1/1T7:2:42,,,,,,,,,,,,,,
Total Measurement Time in sec:,4.299,,,,,,,,,,,,,
***General Information***,,,,,,,***Calibration Coefficients***,,,,,,,,
Model Name:,NIR-S-G1,,,,,,Shift Vector Coefficients:,-8.44101,0.0554567,-8.45244e-05,,,,,
Serial Number:,947R055,95UB122GC0A947R055,,,,,Pixel to Wavelength Coefficients:,1795.87,-0.92014,-0.00023961,,,,,
APP Version:,2.16.7,,,,,,,,,,,,,
TIVA Version:,2.4.4,,,,,,***Lamp Usage * **,,,,,,,,
UUID:,de:67:c:88:67:2c:2d:21,,,,,,Total Time(HH:MM:SS):,12min 23sec ,,,,,,,
Main Board Version:,D,,,,,,***Device/Error Status***,,,,,,,,
Detector Board Version:,B,,,,,,Device Status:,0x00000031,,,,,,
,,,,,,,Error status:,0x00000000,Error Code:,0x00000000000000000000000000000000,,,,,
,,,,,,,,,Error Details:,Not Found,,,,,
***Scan Data***,,,,,,,,,,,,,,,
Wavelength (nm),Absorbance (AU),Reference Signal (unitless),Sample Signal (unitless)
901.841,1.36984,99968.0,4266
905.754,1.32123,108993.0,5202
909.663,1.35456,118185.0,5224
913.568,1.37213,129285.0,5488
917.469,1.35355,143347.0,6351
921.365,1.37433,160437.0,6776
925.257,1.36685,180387.0,7751
929.144,1.37301,201426.0,8533
933.028,1.37981,220694.0,9204
936.906,1.37177,237501.0,10090
942.072,1.368703,256956.0,10994
945.94,1.37529,270636.0,11405
949.805,1.362798,283621.0,12301
953.665,1.35318,296982.0,13169
957.521,1.36183,310733.0,13507
961.373,1.36935,324587.0,13867
965.22,1.36676,339205.0,14578
969.063,1.367726,353669.0,15166
972.902,1.36273,368253.0,15974
976.736,1.370559,382531.0,16297
981.842,1.3813,399901.0,16621
985.666,1.36339,411528.0,17824
989.486,1.37988,422199.0,17605
993.302,1.380175,431172.0,17967
997.113,1.37626,438051.0,18419
1000.92,1.38377,444216.0,18358
1004.72,1.3846,449307.0,18533
1008.52,1.38428,453601.0,18724
1012.32,1.38944,456801.0,18633
1016.11,1.3925,459312.0,18604
1021.15,1.39274,461643.0,18688
1024.93,1.39704,463069.0,18561
1028.71,1.4016,463868.0,18399
1032.48,1.405465,464326.0,18254
1036.24,1.41049,466001.0,18109
1040.01,1.393378,466870.0,18872
1043.77,1.411813,467033.0,18094
1047.52,1.41745,467045.0,17861
1051.27,1.40697,467467.0,18314
1055.01,1.41965,467627.0,17793
1060,1.41417,468351.0,18047
1063.74,1.418536,469050.0,17893
1067.47,1.4292,469880.0,17490
1071.19,1.426265,471228.0,17659
1074.92,1.415746,472558.0,18143
1078.63,1.42808,474087.0,17692
1082.35,1.42998,476569.0,17707
1086.06,1.43306,479445.0,17688
1089.76,1.4308,481756.0,17866
1093.46,1.43065,485147.0,17998
1098.39,1.43582,489755.0,17954
1102.08,1.43836,493535.0,17987
1105.77,1.44006,497426.0,18058
1109.45,1.44202,501308.0,18117
1113.13,1.43933,505725.0,18390
1116.8,1.45123,509421.0,18024
1120.47,1.44327,513217.0,18494
1124.13,1.45103,517470.0,18317
1127.79,1.45408,521690.0,18337
1131.45,1.4396,526099.0,19119
1136.32,1.45718,531329.0,18543
1139.96,1.46502,535549.0,18356
1143.61,1.462,539808.0,18631
1147.24,1.47252,543900.0,18323
1150.88,1.47027,547908.0,18554
1154.5,1.48179,552170.0,18209
1158.13,1.49614,556773.0,17764
1161.75,1.505232,561098.0,17531
1165.36,1.52033,565898.0,17077
1168.98,1.51604,571300.0,17411
1172.58,1.52603,576602.0,17173
1177.39,1.52863,584320.0,17299
1180.98,1.54409,589396.0,16839
1184.58,1.56045,596143.0,16402
1188.16,1.56594,602955.0,16381
1191.75,1.58048,609704.0,16019
1195.33,1.59726,617215.0,15602
1198.9,1.61677,624471.0,15092
1202.48,1.64771,632472.0,14234
1206.04,1.67424,640381.0,13558
1209.61,1.69016,648161.0,13229
1214.35,1.70905,659999.0,12897
1217.9,1.69758,668609.0,13415
1221.45,1.666109,677405.0,14613
1224.99,1.64069,686281.0,15697
1228.53,1.61314,695317.0,16945
1232.07,1.59178,704063.0,18023
1235.6,1.57213,713007.0,19097
1239.13,1.55546,721330.0,20076
1242.65,1.55032,730030.0,20560
1246.17,1.53716,737591.0,21412
1250.85,1.52839,746809.0,22122
1254.36,1.53857,753336.0,21798
1257.86,1.52525,759907.0,22673
1261.36,1.52368,766538.0,22954
1264.86,1.52413,774802.0,23177
1268.35,1.52811,784025.0,23239
1271.83,1.525751,794336.0,23673
1275.32,1.52209,804198.0,24170
1278.79,1.51957,813836.0,24602
1282.27,1.51722,823595.0,25032
1286.89,1.52661,834533.0,24822
1290.36,1.51615,842581.0,25672
1293.81,1.52167,849301.0,25550
1297.27,1.51601,856026.0,26090
1300.72,1.52167,862498.0,25947
1304.17,1.52141,868068.0,26130
1307.61,1.51314,872869.0,26780
1311.05,1.51844,877616.0,26599
1314.48,1.52067,881872.0,26591
1317.91,1.51653,885520.0,26957
1322.47,1.5141,888917.0,27212
1325.89,1.51676,891687.0,27130
1329.31,1.52107,894001.0,26932
1332.72,1.51927,895438.0,27087
1336.12,1.52588,896641.0,26714
1339.52,1.51993,897974.0,27123
1342.92,1.51762,898777.0,27292
1346.31,1.52374,898783.0,26910
1349.7,1.52269,898350.0,26962
1353.09,1.53224,896784.0,26330
1357.59,1.523,895293.0,26851
1360.97,1.52931,892755.0,26389
1364.34,1.53209,890430.0,26152
1367.7,1.54095,888504.0,25569
1371.06,1.5451,885825.0,25249
1374.42,1.55727,881046.0,24419
1377.77,1.569849,874030.0,23533
1381.12,1.58196,865751.0,22669
1384.47,1.6006,857799.0,21517
1387.81,1.62665,851759.0,20122
1392.25,1.65558,846500.0,18709
1395.58,1.656705,843622.0,18597
1398.91,1.63586,841228.0,19456
1402.23,1.625715,838489.0,19851
1405.55,1.6293,836065.0,19631
1408.86,1.63134,834396.0,19500
1412.17,1.64933,832187.0,18659
1415.47,1.65388,830123.0,18419
1418.77,1.64662,828244.0,18687
1422.07,1.65073,827314.0,18490
1426.45,1.64363,826435.0,18775
1429.74,1.65184,825475.0,18402
1433.02,1.64317,824938.0,18761
1436.29,1.64698,823959.0,18575
1439.57,1.62929,823822.0,19344
1442.83,1.63433,823184.0,19106
1446.1,1.63024,821953.0,19258
1449.36,1.62092,821135.0,19656
1452.61,1.61339,819413.0,19958
1455.86,1.6046,817492.0,20318
1459.11,1.6041,814862.0,20276
1463.43,1.59336,811075.0,20687
1466.67,1.59305,807671.0,20615
1469.9,1.58942,803699.0,20686
1473.13,1.57866,799396.0,21091
1476.35,1.570633,795129.0,21370
1479.57,1.57257,790127.0,21141
1482.78,1.57078,784937.0,21089
1486,1.56768,779544.0,21094
1489.2,1.56645,773733.0,20996
1492.4,1.56768,767463.0,20767
1496.67,1.56008,758614.0,20890
1499.86,1.564392,751802.0,20498
1503.04,1.55643,744297.0,20669
1506.23,1.56078,735980.0,20234
1509.41,1.55963,728040.0,20069
1512.58,1.56712,719703.0,19500
1515.75,1.56165,710982.0,19508
1518.92,1.562,702409.0,19257
1522.08,1.56712,693280.0,18784
1525.24,1.56287,683935.0,18713
1529.44,1.56182,671492.0,18417
1532.59,1.5655,661352.0,17986
1535.73,1.56984,650841.0,17524
1538.87,1.56536,640156.0,17415
1542,1.56563,629036.0,17102
1545.13,1.560942,617445.0,16969
1548.26,1.56268,605527.0,16575
1551.38,1.560738,594133.0,16336
1554.49,1.55822,582894.0,16120
1557.61,1.557087,571271.0,15840
1561.75,1.55548,555940.0,15472
1564.85,1.55851,544812.0,15057
1567.95,1.5572,533402.0,14786
1571.05,1.55489,521915.0,14545
1574.14,1.55611,510788.0,14195
1577.22,1.55555,499607.0,13902
1580.3,1.54247,487992.0,13994
1583.38,1.55485,476265.0,13274
1586.45,1.55765,464618.0,12866
1589.52,1.56772,452782.0,12251
1593.6,1.5577,436897.0,12097
1596.66,1.55137,425551.0,11956
1599.71,1.5674,414191.0,11215
1602.76,1.56866,402799.0,10875
1605.81,1.55236,391352.0,10970
1608.85,1.553156,380811.0,10655
1611.89,1.55364,370076.0,10343
1614.92,1.54648,359798.0,10223
1617.95,1.56271,349165.0,9557
1620.97,1.543558,338717.0,9689
1624.99,1.556392,325435.0,9038
1628.01,1.58134,315463.0,8272
1631.02,1.57609,305570.0,8110
1634.02,1.57403,295762.0,7887
1637.02,1.57017,286306.0,7703
1640.02,1.57265,276696.0,7402
1643.01,1.59235,267004.0,6826
1646,1.590628,257531.0,6610
1648.98,1.58518,247817.0,6441
1651.96,1.59704,238547.0,6033
1655.93,1.59504,225092.0,5719
1658.89,1.58698,214425.0,5550
1661.86,1.59028,202241.0,5195
1664.82,1.61085,188046.0,4607
1667.78,1.66682,171566.0,3695
1670.73,1.66929,154101.0,3300
1673.67,1.66579,134892.0,2912
1676.62,1.72207,115325.0,2187
1679.56,1.56994,97255.0,2618
1682.49,1.64023,81017.0,1855
1686.4,1.65962,63571.0,1392
1689.32,1.69869,53566.0,1072
1692.24,1.59536,45493.0,1155
1695.16,1.88676,39217.0,509
1698.07,1.910627,33537.0,412
1700.97,1.67317,29118.0,618