Folder: Dorgan_Laubach_Research/Data/LDPE (part 9)

File: LDPE17_Column 1_20211230_112532.csv
***Scan Config Information***,,,,,,,***Reference Scan Information***,,,,,,,,
Scan Config Name:,Column 1,,,,,,Scan Config Name:,Built-in Factory Reference,,,,,,
Scan Config Type:,Slew,Num Section:,1,,,,Scan Config Type:,Slew,Num Section:,1,,,,,
Section Config Type:,Column,,,,,,Section Config Type:,Column,,,,,,,
Start Wavelength (nm):,900,,,,,,Start Wavelength (nm):,900.0,,,,,,
End Wavelength (nm):,1700,,,,,,End Wavelength (nm):,1700.0,,,,,,
Pattern Width (nm):,7.03,,,,,,Pattern Width (nm):,7.03,,,,,,,
Exposure (ms):,0.635,,,,,,Exposure (ms):,0.635,,,,,,,
Digital Resolution:,228,,,,,,Digital Resolution:,228,,,,,,,
Num Repeats:,6,,,,,,Num Repeats:,30,,,,,,,
PGA Gain:,64,,,,,,PGA Gain:,64,,,,,,
System Temp (C):,23.68,,,,,,System Temp (C):,24.17,,,,,,,
Humidity (%):,40.53,,,,,,Humidity (%):,30.0,,,,,,
Battery Capacity (%):,60,,,,,,Lamp Intensity:,2449,,,,,,,
Lamp Intensity:,2502,,,,,,Data Date-Time:,19/12/12T12:44:54,,,,,,
Data Date-Time:,18/1/1T7:4:51,,,,,,,,,,,,,,
Total Measurement Time in sec:,4.164,,,,,,,,,,,,,
***General Information***,,,,,,,***Calibration Coefficients***,,,,,,,,
Model Name:,NIR-S-G1,,,,,,Shift Vector Coefficients:,-8.44101,0.0554567,-8.45244e-05,,,,,
Serial Number:,947R055,95UB122GC0A947R055,,,,,Pixel to Wavelength Coefficients:,1795.87,-0.92014,-0.00023961,,,,,
APP Version:,2.16.7,,,,,,,,,,,,,
TIVA Version:,2.4.4,,,,,,***Lamp Usage * **,,,,,,,,
UUID:,de:67:c:88:67:2c:2d:21,,,,,,Total Time(HH:MM:SS):,12min 43sec ,,,,,,,
Main Board Version:,D,,,,,,***Device/Error Status***,,,,,,,,
Detector Board Version:,B,,,,,,Device Status:,0x00000031,,,,,,
,,,,,,,Error status:,0x00000000,Error Code:,0x00000000000000000000000000000000,,,,,
,,,,,,,,,Error Details:,Not Found,,,,,
***Scan Data***,,,,,,,,,,,,,,,
Wavelength (nm),Absorbance (AU),Reference Signal (unitless),Sample Signal (unitless)
901.841,1.56593,99968.0,2716
905.754,1.43404,108993.0,4012
909.663,1.46511,118185.0,4050
913.568,1.50873,129285.0,4007
917.469,1.49505,143347.0,4585
921.365,1.4893,160437.0,5200
925.257,1.45984,180387.0,6257
929.144,1.49294,201426.0,6474
933.028,1.49517,220694.0,7057
936.906,1.48407,237501.0,7791
942.072,1.48434,256956.0,8424
945.94,1.49865,270636.0,8585
949.805,1.48491,283621.0,9286
953.665,1.49956,296982.0,9401
957.521,1.48014,310733.0,10286
961.373,1.48053,324587.0,10735
965.22,1.48848,339205.0,11015
969.063,1.48583,353669.0,11555
972.902,1.50173,368253.0,11599
976.736,1.4946,382531.0,12248
981.842,1.49447,399901.0,12808
985.666,1.48616,411528.0,13435
989.486,1.49522,422199.0,13499
993.302,1.49017,431172.0,13947
997.113,1.50073,438051.0,13829
1000.92,1.50492,444216.0,13889
1004.72,1.510498,449307.0,13869
1008.52,1.50393,453601.0,14215
1012.32,1.50176,456801.0,14387
1016.11,1.52116,459312.0,13834
1021.15,1.51016,461643.0,14261
1024.93,1.51137,463069.0,14265
1028.71,1.50939,463868.0,14355
1032.48,1.5229,464326.0,13929
1036.24,1.52406,466001.0,13942
1040.01,1.5354,466870.0,13608
1043.77,1.53447,467033.0,13642
1047.52,1.529228,467045.0,13808
1051.27,1.53079,467467.0,13771
1055.01,1.54416,467627.0,13358
1060,1.54098,468351.0,13477
1063.74,1.53698,469050.0,13622
1067.47,1.53593,469880.0,13679
1071.19,1.54548,471228.0,13420
1074.92,1.54361,472558.0,13516
1078.63,1.53309,474087.0,13892
1082.35,1.542262,476569.0,13673
1086.06,1.543448,479445.0,13718
1089.76,1.548969,481756.0,13610
1093.46,1.55221,485147.0,13604
1098.39,1.55225,489755.0,13732
1102.08,1.55549,493535.0,13735
1105.77,1.56492,497426.0,13546
1109.45,1.56958,501308.0,13506
1113.13,1.56748,505725.0,13691
1116.8,1.56934,509421.0,13732
1120.47,1.56455,513217.0,13988
1124.13,1.57287,517470.0,13836
1127.79,1.57521,521690.0,13874
1131.45,1.58352,526099.0,13726
1136.32,1.58539,531329.0,13803
1139.96,1.58585,535549.0,13898
1143.61,1.591857,539808.0,13816
1147.24,1.59088,543900.0,13952
1150.88,1.60837,547908.0,13500
1154.5,1.60809,552170.0,13614
1158.13,1.61131,556773.0,13626
1161.75,1.61362,561098.0,13659
1165.36,1.62918,565898.0,13291
1168.98,1.64135,571300.0,13047
1172.58,1.63787,576602.0,13274
1177.39,1.65184,584320.0,13026
1180.98,1.66279,589396.0,12812
1184.58,1.65669,596143.0,13142
1188.16,1.68456,602955.0,12466
1191.75,1.69384,609704.0,12339
1195.33,1.69155,617215.0,12557
1198.9,1.72172,624471.0,11852
1202.48,1.74227,632472.0,11449
1206.04,1.76469,640381.0,11009
1209.61,1.79228,648161.0,10457
1214.35,1.77997,659999.0,10954
1217.9,1.78659,668609.0,10929
1221.45,1.77731,677405.0,11312
1224.99,1.7341,686281.0,12659
1228.53,1.70543,695317.0,13701
1232.07,1.69252,704063.0,14292
1235.6,1.67689,713007.0,15004
1239.13,1.66772,721330.0,15503
1242.65,1.6567,730030.0,16093
1246.17,1.65295,737591.0,16401
1250.85,1.64868,746809.0,16770
1254.36,1.649025,753336.0,16903
1257.86,1.64081,759907.0,17376
1261.36,1.63482,766538.0,17771
1264.86,1.62693,774802.0,18292
1268.35,1.63086,784025.0,18343
1271.83,1.631169,794336.0,18571
1275.32,1.62672,804198.0,18995
1278.79,1.62597,813836.0,19256
1282.27,1.62439,823595.0,19558
1286.89,1.61573,834533.0,20217
1290.36,1.62183,842581.0,20127
1293.81,1.61482,849301.0,20618
1297.27,1.62613,856026.0,20247
1300.72,1.618029,862498.0,20784
1304.17,1.62587,868068.0,20544
1307.61,1.62041,872869.0,20919
1311.05,1.6271,877616.0,20711
1314.48,1.62372,881872.0,20974
1317.91,1.6282,885520.0,20845
1322.47,1.62152,888917.0,21249
1325.89,1.6198,891687.0,21400
1329.31,1.61688,894001.0,21600
1332.72,1.62073,895438.0,21444
1336.12,1.62747,896641.0,21142
1339.52,1.62894,897974.0,21102
1342.92,1.62196,898777.0,21463
1346.31,1.62473,898783.0,21327
1349.7,1.62301,898350.0,21401
1353.09,1.62668,896784.0,21184
1357.59,1.6302,895293.0,20978
1360.97,1.63133,892755.0,20864
1364.34,1.63183,890430.0,20786
1367.7,1.63869,888504.0,20416
1371.06,1.644541,885825.0,20082
1374.42,1.66113,881046.0,19225
1377.77,1.66213,874030.0,19028
1381.12,1.669377,865751.0,18536
1384.47,1.68906,857799.0,17552
1387.81,1.70282,851759.0,16885
1392.25,1.73095,846500.0,15728
1395.58,1.75067,843622.0,14979
1398.91,1.72218,841228.0,15949
1402.23,1.71214,838489.0,16269
1405.55,1.71008,836065.0,16299
1408.86,1.72714,834396.0,15640
1412.17,1.73749,832187.0,15231
1415.47,1.73431,830123.0,15305
1418.77,1.73941,828244.0,15092
1422.07,1.73091,827314.0,15373
1426.45,1.72918,826435.0,15418
1429.74,1.71816,825475.0,15796
1433.02,1.72814,824938.0,15427
1436.29,1.73034,823959.0,15331
1439.57,1.71933,823822.0,15722
1442.83,1.71577,823184.0,15839
1446.1,1.70493,821953.0,16215
1449.36,1.70603,821135.0,16158
1452.61,1.7011,819413.0,16308
1455.86,1.69227,817492.0,16604
1459.11,1.68503,814862.0,16829
1463.43,1.67894,811075.0,16987
1466.67,1.684362,807671.0,16706
1469.9,1.6737,803699.0,17037
1473.13,1.67352,799396.0,16953
1476.35,1.66907,795129.0,17036
1479.57,1.657847,790127.0,17372
1482.78,1.6608,784937.0,17141
1486,1.65312,779544.0,17327
1489.2,1.66548,773733.0,16715
1492.4,1.66307,767463.0,16672
1496.67,1.64965,758614.0,16997
1499.86,1.6474,751802.0,16932
1503.04,1.64499,744297.0,16856
1506.23,1.64983,735980.0,16483
1509.41,1.64888,728040.0,16341
1512.58,1.65674,719703.0,15864
1515.75,1.65128,710982.0,15870
1518.92,1.63834,702409.0,16153
1522.08,1.64703,693280.0,15627
1525.24,1.65052,683935.0,15293
1529.44,1.64591,671492.0,15175
1532.59,1.6599,661352.0,14472
1535.73,1.65112,650841.0,14533
1538.87,1.65241,640156.0,14252
1542,1.66148,629036.0,13715
1545.13,1.6523,617445.0,13750
1548.26,1.65672,605527.0,13348
1551.38,1.64394,594133.0,13488
1554.49,1.63084,582894.0,13638
1557.61,1.62673,571271.0,13493
1561.75,1.646315,555940.0,12552
1564.85,1.63941,544812.0,12498
1567.95,1.62793,533402.0,12564
1571.05,1.63947,521915.0,11971
1574.14,1.64921,510788.0,11456
1577.22,1.62436,499607.0,11865
1580.3,1.65011,487992.0,10922
1583.38,1.6413,476265.0,10878
1586.45,1.62645,464618.0,10981
1589.52,1.63186,452782.0,10569
1593.6,1.6189,436897.0,10507
1596.66,1.62995,425551.0,9977
1599.71,1.63765,414191.0,9540
1602.76,1.63549,402799.0,9324
1605.81,1.62996,391352.0,9175
1608.85,1.65236,380811.0,8479
1611.89,1.62564,370076.0,8763
1614.92,1.626742,359798.0,8498
1617.95,1.640484,349165.0,7990
1620.97,1.64026,338717.0,7755
1624.99,1.648844,325435.0,7305
1628.01,1.65634,315463.0,6960
1631.02,1.618528,305570.0,7355
1634.02,1.629145,295762.0,6947
1637.02,1.65701,286306.0,6307
1640.02,1.67359,276696.0,5867
1643.01,1.64953,267004.0,5984
1646,1.68918,257531.0,5268
1648.98,1.64501,247817.0,5612
1651.96,1.67895,238547.0,4996
1655.93,1.6501,225092.0,5038
1658.89,1.65596,214425.0,4735
1661.86,1.66778,202241.0,4346
1664.82,1.6315,188046.0,4393
1667.78,1.696738,171566.0,3449
1670.73,1.69477,154101.0,3112
1673.67,1.65782,134892.0,2966
1676.62,1.67883,115325.0,2416
1679.56,1.6447,97255.0,2204
1682.49,1.69347,81017.0,1641
1686.4,1.70323,63571.0,1259
1689.32,1.91132,53566.0,657
1692.24,1.61262,45493.0,1110
1695.16,1.66816,39217.0,842
1698.07,2.09416,33537.0,270
1700.97,1.85778,29118.0,404

File: LDPE18_Column 1_20211230_112549.csv
***Scan Config Information***,,,,,,,***Reference Scan Information***,,,,,,,,
Scan Config Name:,Column 1,,,,,,Scan Config Name:,Built-in Factory Reference,,,,,,
Scan Config Type:,Slew,Num Section:,1,,,,Scan Config Type:,Slew,Num Section:,1,,,,,
Section Config Type:,Column,,,,,,Section Config Type:,Column,,,,,,,
Start Wavelength (nm):,900,,,,,,Start Wavelength (nm):,900.0,,,,,,
End Wavelength (nm):,1700,,,,,,End Wavelength (nm):,1700.0,,,,,,
Pattern Width (nm):,7.03,,,,,,Pattern Width (nm):,7.03,,,,,,,
Exposure (ms):,0.635,,,,,,Exposure (ms):,0.635,,,,,,,
Digital Resolution:,228,,,,,,Digital Resolution:,228,,,,,,,
Num Repeats:,6,,,,,,Num Repeats:,30,,,,,,,
PGA Gain:,64,,,,,,PGA Gain:,64,,,,,,
System Temp (C):,23.89,,,,,,System Temp (C):,24.17,,,,,,,
Humidity (%):,40.61,,,,,,Humidity (%):,30.0,,,,,,
Battery Capacity (%):,59,,,,,,Lamp Intensity:,2449,,,,,,,
Lamp Intensity:,2506,,,,,,Data Date-Time:,19/12/12T12:44:54,,,,,,
Data Date-Time:,18/1/1T7:5:7,,,,,,,,,,,,,,
Total Measurement Time in sec:,5.48,,,,,,,,,,,,,
***General Information***,,,,,,,***Calibration Coefficients***,,,,,,,,
Model Name:,NIR-S-G1,,,,,,Shift Vector Coefficients:,-8.44101,0.0554567,-8.45244e-05,,,,,
Serial Number:,947R055,95UB122GC0A947R055,,,,,Pixel to Wavelength Coefficients:,1795.87,-0.92014,-0.00023961,,,,,
APP Version:,2.16.7,,,,,,,,,,,,,
TIVA Version:,2.4.4,,,,,,***Lamp Usage * **,,,,,,,,
UUID:,de:67:c:88:67:2c:2d:21,,,,,,Total Time(HH:MM:SS):,12min 45sec ,,,,,,,
Main Board Version:,D,,,,,,***Device/Error Status***,,,,,,,,
Detector Board Version:,B,,,,,,Device Status:,0x00000031,,,,,,
,,,,,,,Error status:,0x00000000,Error Code:,0x00000000000000000000000000000000,,,,,
,,,,,,,,,Error Details:,Not Found,,,,,
***Scan Data***,,,,,,,,,,,,,,,
Wavelength (nm),Absorbance (AU),Reference Signal (unitless),Sample Signal (unitless)
901.841,1.45344,99968.0,3519
905.754,1.42261,108993.0,4119
909.663,1.4398,118185.0,4293
913.568,1.4202,129285.0,4913
917.469,1.42714,143347.0,5361
921.365,1.418624,160437.0,6119
925.257,1.44698,180387.0,6445
929.144,1.44951,201426.0,7155
933.028,1.4157,220694.0,8474
936.906,1.41079,237501.0,9223
942.072,1.4181,256956.0,9812
945.94,1.42187,270636.0,10245
949.805,1.43192,283621.0,10491
953.665,1.42177,296982.0,11245
957.521,1.42062,310733.0,11797
961.373,1.42726,324587.0,12136
965.22,1.42078,339205.0,12873
969.063,1.41836,353669.0,13497
972.902,1.41665,368253.0,14109
976.736,1.42998,382531.0,14213
981.842,1.41746,399901.0,15293
985.666,1.42261,411528.0,15552
989.486,1.42851,422199.0,15740
993.302,1.43872,431172.0,15701
997.113,1.44759,438051.0,15629
1000.92,1.43241,444216.0,16413
1004.72,1.443,449307.0,16201
1008.52,1.44856,453601.0,16148
1012.32,1.44377,456801.0,16442
1016.11,1.45021,459312.0,16289
1021.15,1.458723,461643.0,16054
1024.93,1.45332,463069.0,16305
1028.71,1.4528,463868.0,16353
1032.48,1.46251,464326.0,16007
1036.24,1.46549,466001.0,15955
1040.01,1.46922,466870.0,15848
1043.77,1.46198,467033.0,16120
1047.52,1.48195,467045.0,15396
1051.27,1.46876,467467.0,15885
1055.01,1.4765,467627.0,15610
1060,1.47753,468351.0,15597
1063.74,1.47659,469050.0,15654
1067.47,1.489173,469880.0,15234
1071.19,1.48019,471228.0,15597
1074.92,1.48323,472558.0,15532
1078.63,1.48696,474087.0,15449
1082.35,1.48245,476569.0,15692
1086.06,1.50471,479445.0,14998
1089.76,1.48696,481756.0,15699
1093.46,1.50661,485147.0,15110
1098.39,1.48779,489755.0,15929
1102.08,1.51228,493535.0,15172
1105.77,1.49541,497426.0,15897
1109.45,1.49363,501308.0,16087
1113.13,1.50009,505725.0,15989
1116.8,1.505161,509421.0,15919
1120.47,1.50926,513217.0,15887
1124.13,1.50736,517470.0,16089
1127.79,1.51389,521690.0,15978
1131.45,1.51578,526099.0,16043
1136.32,1.51894,531329.0,16085
1139.96,1.52487,535549.0,15993
1143.61,1.5259,539808.0,16082
1147.24,1.53722,543900.0,15787
1150.88,1.53706,547908.0,15909
1154.5,1.5413,552170.0,15877
1158.13,1.54647,556773.0,15820
1161.75,1.55533,561098.0,15621
1165.36,1.57979,565898.0,14892
1168.98,1.57448,571300.0,15219
1172.58,1.58865,576602.0,14867
1177.39,1.59137,584320.0,14972
1180.98,1.59965,589396.0,14817
1184.58,1.61488,596143.0,14470
1188.16,1.62888,602955.0,14171
1191.75,1.63578,609704.0,14104
1195.33,1.64533,617215.0,13967
1198.9,1.68007,624471.0,13045
1202.48,1.70413,632472.0,12500
1206.04,1.69841,640381.0,12824
1209.61,1.7284,648161.0,12114
1214.35,1.73436,659999.0,12167
1217.9,1.7392,668609.0,12189
1221.45,1.73265,677405.0,12537
1224.99,1.70178,686281.0,13637
1228.53,1.65911,695317.0,15243
1232.07,1.64106,704063.0,16090
1235.6,1.62577,713007.0,16878
1239.13,1.6109,721330.0,17670
1242.65,1.602054,730030.0,18251
1246.17,1.59338,737591.0,18812
1250.85,1.5897,746809.0,19209
1254.36,1.58863,753336.0,19425
1257.86,1.57733,759907.0,20111
1261.36,1.57635,766538.0,20332
1264.86,1.564168,774802.0,21136
1268.35,1.56509,784025.0,21342
1271.83,1.57381,794336.0,21193
1275.32,1.56844,804198.0,21723
1278.79,1.57478,813836.0,21665
1282.27,1.573449,823595.0,21992
1286.89,1.5672,834533.0,22607
1290.36,1.5697,842581.0,22694
1293.81,1.56616,849301.0,23062
1297.27,1.574857,856026.0,22784
1300.72,1.57606,862498.0,22893
1304.17,1.56819,868068.0,23462
1307.61,1.57194,872869.0,23389
1311.05,1.565052,877616.0,23892
1314.48,1.56794,881872.0,23849
1317.91,1.56681,885520.0,24010
1322.47,1.57166,888917.0,23834
1325.89,1.56982,891687.0,24010
1329.31,1.57648,894001.0,23706
1332.72,1.57119,895438.0,24035
1336.12,1.56733,896641.0,24282
1339.52,1.57387,897974.0,23955
1342.92,1.57804,898777.0,23747
1346.31,1.574694,898783.0,23931
1349.7,1.57318,898350.0,24003
1353.09,1.56665,896784.0,24324
1357.59,1.58534,895293.0,23261
1360.97,1.58457,892755.0,23236
1364.34,1.58074,890430.0,23381
1367.7,1.59615,888504.0,22517
1371.06,1.59753,885825.0,22378
1374.42,1.60325,881046.0,21966
1377.77,1.61235,874030.0,21339
1381.12,1.62926,865751.0,20330
1384.47,1.63901,857799.0,19696
1387.81,1.660617,851759.0,18608
1392.25,1.68598,846500.0,17444
1395.58,1.6848,843622.0,17432
1398.91,1.683442,841228.0,17437
1402.23,1.65903,838489.0,18385
1405.55,1.663938,836065.0,18126
1408.86,1.67739,834396.0,17538
1412.17,1.69077,832187.0,16961
1415.47,1.69666,830123.0,16691
1418.77,1.68478,828244.0,17115
1422.07,1.689347,827314.0,16917
1426.45,1.69017,826435.0,16867
1429.74,1.670427,825475.0,17631
1433.02,1.68454,824938.0,17056
1436.29,1.68119,823959.0,17168
1439.57,1.67508,823822.0,17408
1442.83,1.67525,823184.0,17388
1446.1,1.67238,821953.0,17477
1449.36,1.66627,821135.0,17707
1452.61,1.66347,819413.0,17784
1455.86,1.64176,817492.0,18652
1459.11,1.64589,814862.0,18416
1463.43,1.63801,811075.0,18666
1466.67,1.63098,807671.0,18891
1469.9,1.62584,803699.0,19022
1473.13,1.6336,799396.0,18585
1476.35,1.61551,795129.0,19272
1479.57,1.61507,790127.0,19170
1482.78,1.61918,784937.0,18865
1486,1.6114,779544.0,19074
1489.2,1.60979,773733.0,19002
1492.4,1.60275,767463.0,19156
1496.67,1.60626,758614.0,18783
1499.86,1.60846,751802.0,18520
1503.04,1.60816,744297.0,18348
1506.23,1.60737,735980.0,18176
1509.41,1.605,728040.0,18078
1512.58,1.60157,719703.0,18013
1515.75,1.60588,710982.0,17619
1518.92,1.599157,702409.0,17678
1522.08,1.58699,693280.0,17944
1525.24,1.60042,683935.0,17163
1529.44,1.60623,671492.0,16627
1532.59,1.603212,661352.0,16490
1535.73,1.61339,650841.0,15852
1538.87,1.60593,640156.0,15862
1542,1.61214,629036.0,15365
1545.13,1.60302,617445.0,15402
1548.26,1.60402,605527.0,15070
1551.38,1.59436,594133.0,15119
1554.49,1.58791,582894.0,15055
1557.61,1.59706,571271.0,14447
1561.75,1.58199,555940.0,14556
1564.85,1.58589,544812.0,14137
1567.95,1.58006,533402.0,14028
1571.05,1.58672,521915.0,13517
1574.14,1.584,510788.0,13312
1577.22,1.58255,499607.0,13064
1580.3,1.58656,487992.0,12643
1583.38,1.58195,476265.0,12471
1586.45,1.580416,464618.0,12209
1589.52,1.57667,452782.0,12001
1593.6,1.57904,436897.0,11517
1596.66,1.58859,425551.0,10974
1599.71,1.58213,414191.0,10841
1602.76,1.58394,402799.0,10499
1605.81,1.58589,391352.0,10155
1608.85,1.57579,380811.0,10114
1611.89,1.57459,370076.0,9856
1614.92,1.574376,359798.0,9587
1617.95,1.57938,349165.0,9197
1620.97,1.56737,338717.0,9172
1624.99,1.58664,325435.0,8430
1628.01,1.56168,315463.0,8655
1631.02,1.587099,305570.0,7907
1634.02,1.57003,295762.0,7960
1637.02,1.5859,286306.0,7429
1640.02,1.60271,276696.0,6907
1643.01,1.5826,267004.0,6981
1646,1.58307,257531.0,6726
1648.98,1.58606,247817.0,6428
1651.96,1.60584,238547.0,5912
1655.93,1.59254,225092.0,5752
1658.89,1.59289,214425.0,5475
1661.86,1.57573,202241.0,5372
1664.82,1.63647,188046.0,4343
1667.78,1.62048,171566.0,4111
1670.73,1.5825,154101.0,4030
1673.67,1.603,134892.0,3365
1676.62,1.62976,115325.0,2705
1679.56,1.56173,97255.0,2668
1682.49,1.527461,81017.0,2405
1686.4,1.56622,63571.0,1726
1689.32,1.753,53566.0,946
1692.24,1.68159,45493.0,947
1695.16,1.581059,39217.0,1029
1698.07,1.78595,33537.0,549
1700.97,1.54982,29118.0,821