Folder: Dorgan_Laubach_Research/Data/LDPE (part 8)

File: LDPE15_Column 1_20211230_112504.csv
***Scan Config Information***,,,,,,,***Reference Scan Information***,,,,,,,,
Scan Config Name:,Column 1,,,,,,Scan Config Name:,Built-in Factory Reference,,,,,,
Scan Config Type:,Slew,Num Section:,1,,,,Scan Config Type:,Slew,Num Section:,1,,,,,
Section Config Type:,Column,,,,,,Section Config Type:,Column,,,,,,,
Start Wavelength (nm):,900,,,,,,Start Wavelength (nm):,900.0,,,,,,
End Wavelength (nm):,1700,,,,,,End Wavelength (nm):,1700.0,,,,,,
Pattern Width (nm):,7.03,,,,,,Pattern Width (nm):,7.03,,,,,,,
Exposure (ms):,0.635,,,,,,Exposure (ms):,0.635,,,,,,,
Digital Resolution:,228,,,,,,Digital Resolution:,228,,,,,,,
Num Repeats:,6,,,,,,Num Repeats:,30,,,,,,,
PGA Gain:,64,,,,,,PGA Gain:,64,,,,,,
System Temp (C):,23.26,,,,,,System Temp (C):,24.17,,,,,,,
Humidity (%):,40.65,,,,,,Humidity (%):,30.0,,,,,,
Battery Capacity (%):,60,,,,,,Lamp Intensity:,2449,,,,,,,
Lamp Intensity:,2495,,,,,,Data Date-Time:,19/12/12T12:44:54,,,,,,
Data Date-Time:,18/1/1T7:4:23,,,,,,,,,,,,,,
Total Measurement Time in sec:,4.342,,,,,,,,,,,,,
***General Information***,,,,,,,***Calibration Coefficients***,,,,,,,,
Model Name:,NIR-S-G1,,,,,,Shift Vector Coefficients:,-8.44101,0.0554567,-8.45244e-05,,,,,
Serial Number:,947R055,95UB122GC0A947R055,,,,,Pixel to Wavelength Coefficients:,1795.87,-0.92014,-0.00023961,,,,,
APP Version:,2.16.7,,,,,,,,,,,,,
TIVA Version:,2.4.4,,,,,,***Lamp Usage * **,,,,,,,,
UUID:,de:67:c:88:67:2c:2d:21,,,,,,Total Time(HH:MM:SS):,12min 39sec ,,,,,,,
Main Board Version:,D,,,,,,***Device/Error Status***,,,,,,,,
Detector Board Version:,B,,,,,,Device Status:,0x00000031,,,,,,
,,,,,,,Error status:,0x00000000,Error Code:,0x00000000000000000000000000000000,,,,,
,,,,,,,,,Error Details:,Not Found,,,,,
***Scan Data***,,,,,,,,,,,,,,,
Wavelength (nm),Absorbance (AU),Reference Signal (unitless),Sample Signal (unitless)
901.841,1.436736,99968.0,3657
905.754,1.53634,108993.0,3170
909.663,1.48116,118185.0,3903
913.568,1.46495,129285.0,4432
917.469,1.49278,143347.0,4609
921.365,1.48788,160437.0,5217
925.257,1.51624,180387.0,5495
929.144,1.50956,201426.0,6231
933.028,1.47721,220694.0,7355
936.906,1.49149,237501.0,7659
942.072,1.49982,256956.0,8129
945.94,1.49532,270636.0,8651
949.805,1.47689,283621.0,9459
953.665,1.49245,296982.0,9556
957.521,1.49623,310733.0,9912
961.373,1.46943,324587.0,11013
965.22,1.48132,339205.0,11198
969.063,1.47741,353669.0,11781
972.902,1.481713,368253.0,12146
976.736,1.49181,382531.0,12327
981.842,1.48784,399901.0,13005
985.666,1.48668,411528.0,13419
989.486,1.50623,422199.0,13161
993.302,1.5125,431172.0,13248
997.113,1.50161,438051.0,13801
1000.92,1.5043,444216.0,13909
1004.72,1.5057,449307.0,14023
1008.52,1.49991,453601.0,14347
1012.32,1.50182,456801.0,14385
1016.11,1.5149,459312.0,14035
1021.15,1.50381,461643.0,14471
1024.93,1.52076,463069.0,13960
1028.71,1.52329,463868.0,13903
1032.48,1.51705,464326.0,14118
1036.24,1.50282,466001.0,14641
1040.01,1.518102,466870.0,14161
1043.77,1.525116,467033.0,13939
1047.52,1.53144,467045.0,13738
1051.27,1.54197,467467.0,13421
1055.01,1.53217,467627.0,13732
1060,1.53376,468351.0,13703
1063.74,1.54198,469050.0,13466
1067.47,1.53794,469880.0,13616
1071.19,1.53632,471228.0,13706
1074.92,1.54515,472558.0,13468
1078.63,1.53993,474087.0,13675
1082.35,1.54619,476569.0,13550
1086.06,1.55441,479445.0,13376
1089.76,1.54273,481756.0,13807
1093.46,1.53334,485147.0,14208
1098.39,1.546683,489755.0,13909
1102.08,1.5429,493535.0,14139
1105.77,1.552528,497426.0,13938
1109.45,1.55302,501308.0,14031
1113.13,1.56052,505725.0,13912
1116.8,1.55666,509421.0,14139
1120.47,1.55579,513217.0,14273
1124.13,1.55126,517470.0,14542
1127.79,1.57194,521690.0,13979
1131.45,1.56604,526099.0,14290
1136.32,1.57636,531329.0,14093
1139.96,1.564863,535549.0,14586
1143.61,1.57063,539808.0,14508
1147.24,1.584824,543900.0,14148
1150.88,1.590321,547908.0,14073
1154.5,1.599058,552170.0,13900
1158.13,1.59949,556773.0,14002
1161.75,1.60016,561098.0,14089
1165.36,1.60841,565898.0,13942
1168.98,1.60731,571300.0,14111
1172.58,1.62482,576602.0,13679
1177.39,1.62674,584320.0,13801
1180.98,1.64428,589396.0,13370
1184.58,1.64303,596143.0,13562
1188.16,1.66166,602955.0,13141
1191.75,1.67017,609704.0,13030
1195.33,1.6919,617215.0,12547
1198.9,1.697284,624471.0,12538
1202.48,1.72905,632472.0,11803
1206.04,1.73952,640381.0,11666
1209.61,1.76656,648161.0,11095
1214.35,1.73848,659999.0,12052
1217.9,1.76489,668609.0,11489
1221.45,1.74395,677405.0,12215
1224.99,1.70668,686281.0,13484
1228.53,1.69017,695317.0,14191
1232.07,1.66428,704063.0,15252
1235.6,1.65769,713007.0,15682
1239.13,1.63926,721330.0,16553
1242.65,1.63767,730030.0,16814
1246.17,1.63921,737591.0,16928
1250.85,1.61941,746809.0,17939
1254.36,1.62613,753336.0,17818
1257.86,1.61251,759907.0,18546
1261.36,1.60862,766538.0,18876
1264.86,1.61448,774802.0,18824
1268.35,1.61837,784025.0,18878
1271.83,1.60547,794336.0,19703
1275.32,1.60092,804198.0,20158
1278.79,1.59887,813836.0,20496
1282.27,1.60345,823595.0,20524
1286.89,1.60531,834533.0,20708
1290.36,1.59983,842581.0,21173
1293.81,1.61054,849301.0,20822
1297.27,1.60392,856026.0,21309
1300.72,1.59571,862498.0,21880
1304.17,1.60557,868068.0,21527
1307.61,1.60112,872869.0,21869
1311.05,1.60658,877616.0,21713
1314.48,1.6035,881872.0,21974
1317.91,1.604756,885520.0,22001
1322.47,1.60223,888917.0,22214
1325.89,1.60384,891687.0,22201
1329.31,1.59879,894001.0,22519
1332.72,1.61155,895438.0,21902
1336.12,1.60055,896641.0,22494
1339.52,1.604414,897974.0,22328
1342.92,1.60012,898777.0,22570
1346.31,1.60962,898783.0,22082
1349.7,1.60462,898350.0,22327
1353.09,1.61497,896784.0,21763
1357.59,1.60897,895293.0,22029
1360.97,1.6163,892755.0,21599
1364.34,1.61702,890430.0,21507
1367.7,1.63068,888504.0,20796
1371.06,1.627763,885825.0,20873
1374.42,1.63454,881046.0,20439
1377.77,1.64737,874030.0,19686
1381.12,1.64854,865751.0,19447
1384.47,1.67291,857799.0,18217
1387.81,1.68505,851759.0,17590
1392.25,1.71138,846500.0,16453
1395.58,1.7213,843622.0,16027
1398.91,1.70144,841228.0,16729
1402.23,1.68893,838489.0,17162
1405.55,1.69895,836065.0,16722
1408.86,1.70132,834396.0,16598
1412.17,1.71567,832187.0,16016
1415.47,1.722607,830123.0,15723
1418.77,1.7346,828244.0,15260
1422.07,1.71677,827314.0,15882
1426.45,1.70826,826435.0,16179
1429.74,1.70676,825475.0,16216
1433.02,1.71095,824938.0,16050
1436.29,1.71132,823959.0,16017
1439.57,1.69045,823822.0,16803
1442.83,1.68479,823184.0,17010
1446.1,1.69024,821953.0,16773
1449.36,1.68553,821135.0,16939
1452.61,1.68551,819413.0,16904
1455.86,1.67544,817492.0,17260
1459.11,1.67745,814862.0,17125
1463.43,1.67152,811075.0,17280
1466.67,1.66103,807671.0,17628
1469.9,1.65079,803699.0,17960
1473.13,1.65863,799396.0,17544
1476.35,1.649335,795129.0,17828
1479.57,1.64523,790127.0,17884
1482.78,1.64725,784937.0,17684
1486,1.64387,779544.0,17700
1489.2,1.63571,773733.0,17901
1492.4,1.63449,767463.0,17806
1496.67,1.64085,758614.0,17345
1499.86,1.641966,751802.0,17145
1503.04,1.64148,744297.0,16993
1506.23,1.63586,735980.0,17022
1509.41,1.63038,728040.0,17052
1512.58,1.64276,719703.0,16383
1515.75,1.64267,710982.0,16188
1518.92,1.62255,702409.0,16751
1522.08,1.63048,693280.0,16234
1525.24,1.62743,683935.0,16128
1529.44,1.63915,671492.0,15413
1532.59,1.63478,661352.0,15334
1535.73,1.63747,650841.0,14997
1538.87,1.64178,640156.0,14605
1542,1.62959,629036.0,14760
1545.13,1.63293,617445.0,14377
1548.26,1.6292,605527.0,14221
1551.38,1.62362,594133.0,14134
1554.49,1.62276,582894.0,13894
1557.61,1.61489,571271.0,13866
1561.75,1.62515,555940.0,13179
1564.85,1.61551,544812.0,13205
1567.95,1.62209,533402.0,12734
1571.05,1.60856,521915.0,12854
1574.14,1.61622,510788.0,12360
1577.22,1.61387,499607.0,12155
1580.3,1.61697,487992.0,11788
1583.38,1.62201,476265.0,11372
1586.45,1.619938,464618.0,11147
1589.52,1.61958,452782.0,10872
1593.6,1.62284,436897.0,10412
1596.66,1.61709,425551.0,10277
1599.71,1.6047,414191.0,10292
1602.76,1.59999,402799.0,10118
1605.81,1.61727,391352.0,9447
1608.85,1.60221,380811.0,9517
1611.89,1.62017,370076.0,8874
1614.92,1.62141,359798.0,8603
1617.95,1.60546,349165.0,8661
1620.97,1.59257,338717.0,8655
1624.99,1.62807,325435.0,7663
1628.01,1.62244,315463.0,7525
1631.02,1.60918,305570.0,7515
1634.02,1.62368,295762.0,7035
1637.02,1.5995,286306.0,7200
1640.02,1.60873,276696.0,6812
1643.01,1.64584,267004.0,6035
1646,1.6209,257531.0,6165
1648.98,1.60469,247817.0,6158
1651.96,1.61243,238547.0,5823
1655.93,1.619243,225092.0,5409
1658.89,1.61319,214425.0,5225
1661.86,1.58728,202241.0,5231
1664.82,1.64312,188046.0,4277
1667.78,1.63031,171566.0,4019
1670.73,1.57949,154101.0,4058
1673.67,1.60261,134892.0,3368
1676.62,1.66364,115325.0,2502
1679.56,1.67573,97255.0,2052
1682.49,1.61499,81017.0,1966
1686.4,1.60104,63571.0,1593
1689.32,1.57083,53566.0,1439
1692.24,1.80303,45493.0,716
1695.16,1.5974,39217.0,991
1698.07,1.7027,33537.0,665
1700.97,2.20409,29118.0,182

File: LDPE16_Column 1_20211230_112519.csv
***Scan Config Information***,,,,,,,***Reference Scan Information***,,,,,,,,
Scan Config Name:,Column 1,,,,,,Scan Config Name:,Built-in Factory Reference,,,,,,
Scan Config Type:,Slew,Num Section:,1,,,,Scan Config Type:,Slew,Num Section:,1,,,,,
Section Config Type:,Column,,,,,,Section Config Type:,Column,,,,,,,
Start Wavelength (nm):,900,,,,,,Start Wavelength (nm):,900.0,,,,,,
End Wavelength (nm):,1700,,,,,,End Wavelength (nm):,1700.0,,,,,,
Pattern Width (nm):,7.03,,,,,,Pattern Width (nm):,7.03,,,,,,,
Exposure (ms):,0.635,,,,,,Exposure (ms):,0.635,,,,,,,
Digital Resolution:,228,,,,,,Digital Resolution:,228,,,,,,,
Num Repeats:,6,,,,,,Num Repeats:,30,,,,,,,
PGA Gain:,64,,,,,,PGA Gain:,64,,,,,,
System Temp (C):,23.47,,,,,,System Temp (C):,24.17,,,,,,,
Humidity (%):,40.64,,,,,,Humidity (%):,30.0,,,,,,
Battery Capacity (%):,60,,,,,,Lamp Intensity:,2449,,,,,,,
Lamp Intensity:,2498,,,,,,Data Date-Time:,19/12/12T12:44:54,,,,,,
Data Date-Time:,18/1/1T7:4:37,,,,,,,,,,,,,,
Total Measurement Time in sec:,4.886,,,,,,,,,,,,,
***General Information***,,,,,,,***Calibration Coefficients***,,,,,,,,
Model Name:,NIR-S-G1,,,,,,Shift Vector Coefficients:,-8.44101,0.0554567,-8.45244e-05,,,,,
Serial Number:,947R055,95UB122GC0A947R055,,,,,Pixel to Wavelength Coefficients:,1795.87,-0.92014,-0.00023961,,,,,
APP Version:,2.16.7,,,,,,,,,,,,,
TIVA Version:,2.4.4,,,,,,***Lamp Usage * **,,,,,,,,
UUID:,de:67:c:88:67:2c:2d:21,,,,,,Total Time(HH:MM:SS):,12min 41sec ,,,,,,,
Main Board Version:,D,,,,,,***Device/Error Status***,,,,,,,,
Detector Board Version:,B,,,,,,Device Status:,0x00000031,,,,,,
,,,,,,,Error status:,0x00000000,Error Code:,0x00000000000000000000000000000000,,,,,
,,,,,,,,,Error Details:,Not Found,,,,,
***Scan Data***,,,,,,,,,,,,,,,
Wavelength (nm),Absorbance (AU),Reference Signal (unitless),Sample Signal (unitless)
901.841,1.54869,99968.0,2826
905.754,1.5584,108993.0,3013
909.663,1.52614,118185.0,3519
913.568,1.556091,129285.0,3593
917.469,1.53428,143347.0,4189
921.365,1.53766,160437.0,4652
925.257,1.53357,180387.0,5280
929.144,1.54467,201426.0,5747
933.028,1.539106,220694.0,6378
936.906,1.50832,237501.0,7368
942.072,1.5002,256956.0,8122
945.94,1.498797,270636.0,8582
949.805,1.53445,283621.0,8285
953.665,1.53206,296982.0,8723
957.521,1.52395,310733.0,9299
961.373,1.51399,324587.0,9939
965.22,1.51519,339205.0,10358
969.063,1.51305,353669.0,10853
972.902,1.50651,368253.0,11472
976.736,1.49047,382531.0,12365
981.842,1.53873,399901.0,11567
985.666,1.51001,411528.0,12717
989.486,1.50715,422199.0,13133
993.302,1.51477,431172.0,13179
997.113,1.52224,438051.0,13161
1000.92,1.52289,444216.0,13326
1004.72,1.52327,449307.0,13467
1008.52,1.53758,453601.0,13155
1012.32,1.51784,456801.0,13864
1016.11,1.51984,459312.0,13876
1021.15,1.53362,461643.0,13511
1024.93,1.53718,463069.0,13442
1028.71,1.52123,463868.0,13969
1032.48,1.55311,464326.0,12993
1036.24,1.54604,466001.0,13254
1040.01,1.55044,466870.0,13145
1043.77,1.55688,467033.0,12956
1047.52,1.54816,467045.0,13219
1051.27,1.55251,467467.0,13099
1055.01,1.5513,467627.0,13140
1060,1.54679,468351.0,13298
1063.74,1.55728,469050.0,13000
1067.47,1.556876,469880.0,13035
1071.19,1.56446,471228.0,12846
1074.92,1.55619,472558.0,13130
1078.63,1.55932,474087.0,13078
1082.35,1.5772,476569.0,12616
1086.06,1.57248,479445.0,12831
1089.76,1.57776,481756.0,12737
1093.46,1.56579,485147.0,13185
1098.39,1.57677,489755.0,12978
1102.08,1.565339,493535.0,13427
1105.77,1.58248,497426.0,13009
1109.45,1.56826,501308.0,13547
1113.13,1.5692,505725.0,13637
1116.8,1.57198,509421.0,13649
1120.47,1.589201,513217.0,13216
1124.13,1.58727,517470.0,13385
1127.79,1.5833,521690.0,13618
1131.45,1.59028,526099.0,13514
1136.32,1.59439,531329.0,13520
1139.96,1.603676,535549.0,13339
1143.61,1.60036,539808.0,13548
1147.24,1.60819,543900.0,13407
1150.88,1.60693,547908.0,13545
1154.5,1.61332,552170.0,13451
1158.13,1.618703,556773.0,13396
1161.75,1.62333,561098.0,13357
1165.36,1.637927,565898.0,13026
1168.98,1.639626,571300.0,13099
1172.58,1.64918,576602.0,12933
1177.39,1.660052,584320.0,12782
1180.98,1.67849,589396.0,12357
1184.58,1.67474,596143.0,12607
1188.16,1.68043,602955.0,12585
1191.75,1.696983,609704.0,12250
1195.33,1.71401,617215.0,11924
1198.9,1.7196,624471.0,11910
1202.48,1.75082,632472.0,11226
1206.04,1.77378,640381.0,10781
1209.61,1.79771,648161.0,10327
1214.35,1.80068,659999.0,10444
1217.9,1.78327,668609.0,11013
1221.45,1.77497,677405.0,11373
1224.99,1.75638,686281.0,12026
1228.53,1.72332,695317.0,13148
1232.07,1.70009,704063.0,14045
1235.6,1.69014,713007.0,14553
1239.13,1.679272,721330.0,15096
1242.65,1.66438,730030.0,15811
1246.17,1.66636,737591.0,15902
1250.85,1.64658,746809.0,16851
1254.36,1.63656,753336.0,17395
1257.86,1.63582,759907.0,17577
1261.36,1.644509,766538.0,17379
1264.86,1.63549,774802.0,17935
1268.35,1.6456,784025.0,17731
1271.83,1.637055,794336.0,18321
1275.32,1.62844,804198.0,18920
1278.79,1.64035,813836.0,18629
1282.27,1.63,823595.0,19307
1286.89,1.62992,834533.0,19567
1290.36,1.6319,842581.0,19666
1293.81,1.63636,849301.0,19620
1297.27,1.62959,856026.0,20086
1300.72,1.63857,862498.0,19824
1304.17,1.63475,868068.0,20128
1307.61,1.63288,872869.0,20327
1311.05,1.645544,877616.0,19850
1314.48,1.62839,881872.0,20750
1317.91,1.63553,885520.0,20496
1322.47,1.64049,888917.0,20341
1325.89,1.63536,891687.0,20647
1329.31,1.63225,894001.0,20849
1332.72,1.63552,895438.0,20726
1336.12,1.63416,896641.0,20819
1339.52,1.63351,897974.0,20881
1342.92,1.63249,898777.0,20949
1346.31,1.63332,898783.0,20909
1349.7,1.6334,898350.0,20895
1353.09,1.64259,896784.0,20422
1357.59,1.64344,895293.0,20348
1360.97,1.64661,892755.0,20143
1364.34,1.63275,890430.0,20742
1367.7,1.652543,888504.0,19775
1371.06,1.65189,885825.0,19745
1374.42,1.65201,881046.0,19633
1377.77,1.67468,874030.0,18486
1381.12,1.68981,865751.0,17684
1384.47,1.70782,857799.0,16810
1387.81,1.73026,851759.0,15851
1392.25,1.74191,846500.0,15336
1395.58,1.73685,843622.0,15463
1398.91,1.737,841228.0,15414
1402.23,1.73126,838489.0,15568
1405.55,1.727,836065.0,15676
1408.86,1.73174,834396.0,15475
1412.17,1.74073,832187.0,15118
1415.47,1.740108,830123.0,15102
1418.77,1.75775,828244.0,14468
1422.07,1.74618,827314.0,14842
1426.45,1.74382,826435.0,14907
1429.74,1.75075,825475.0,14654
1433.02,1.74707,824938.0,14769
1436.29,1.73572,823959.0,15142
1439.57,1.74376,823822.0,14862
1442.83,1.7167,823184.0,15805
1446.1,1.723396,821953.0,15540
1449.36,1.71948,821135.0,15665
1452.61,1.70695,819413.0,16090
1455.86,1.71265,817492.0,15843
1459.11,1.69555,814862.0,16426
1463.43,1.70156,811075.0,16125
1466.67,1.70054,807671.0,16095
1469.9,1.68603,803699.0,16560
1473.13,1.70068,799396.0,15925
1476.35,1.68812,795129.0,16305
1479.57,1.68407,790127.0,16354
1482.78,1.67719,784937.0,16506
1486,1.6716,779544.0,16605
1489.2,1.675472,773733.0,16335
1492.4,1.67101,767463.0,16370
1496.67,1.67,758614.0,16219
1499.86,1.65804,751802.0,16522
1503.04,1.6709,744297.0,15880
1506.23,1.66873,735980.0,15781
1509.41,1.67126,728040.0,15520
1512.58,1.66699,719703.0,15494
1515.75,1.66125,710982.0,15510
1518.92,1.65436,702409.0,15568
1522.08,1.66772,693280.0,14900
1525.24,1.67995,683935.0,14291
1529.44,1.67046,671492.0,14341
1532.59,1.66946,661352.0,14157
1535.73,1.67501,650841.0,13755
1538.87,1.67399,640156.0,13561
1542,1.66453,629036.0,13619
1545.13,1.6787,617445.0,12939
1548.26,1.68903,605527.0,12391
1551.38,1.65714,594133.0,13084
1554.49,1.63962,582894.0,13365
1557.61,1.66007,571271.0,12496
1561.75,1.67573,555940.0,11730
1564.85,1.6516,544812.0,12152
1567.95,1.65872,533402.0,11704
1571.05,1.66792,521915.0,11212
1574.14,1.65871,510788.0,11208
1577.22,1.64918,499607.0,11206
1580.3,1.65142,487992.0,10889
1583.38,1.65279,476265.0,10594
1586.45,1.63654,464618.0,10729
1589.52,1.64398,452782.0,10278
1593.6,1.65004,436897.0,9780
1596.66,1.65453,425551.0,9428
1599.71,1.652611,414191.0,9217
1602.76,1.640122,402799.0,9225
1605.81,1.64337,391352.0,8896
1608.85,1.65555,380811.0,8417
1611.89,1.66585,370076.0,7988
1614.92,1.66771,359798.0,7733
1617.95,1.67556,349165.0,7370
1620.97,1.65745,338717.0,7454
1624.99,1.63909,325435.0,7471
1628.01,1.67632,315463.0,6647
1631.02,1.6714,305570.0,6512
1634.02,1.69767,295762.0,5933
1637.02,1.65235,286306.0,6375
1640.02,1.66154,276696.0,6032
1643.01,1.66632,267004.0,5757
1646,1.69441,257531.0,5205
1648.98,1.66424,247817.0,5369
1651.96,1.63032,238547.0,5588
1655.93,1.69007,225092.0,4595
1658.89,1.7126,214425.0,4156
1661.86,1.70035,202241.0,4032
1664.82,1.70093,188046.0,3744
1667.78,1.73792,171566.0,3137
1670.73,1.72213,154101.0,2922
1673.67,1.75744,134892.0,2358
1676.62,1.73009,115325.0,2147
1679.56,1.83716,97255.0,1415
1682.49,1.87035,81017.0,1092
1686.4,1.78248,63571.0,1049
1689.32,1.92543,53566.0,636
1692.24,2.22658,45493.0,270
1695.16,2.25303,39217.0,219
1698.07,2.03416,33537.0,310
1700.97,2.00628,29118.0,287