Folder: Dorgan_Laubach_Research/Data/LDPE (part 2)

File: LDPE3_Column 1_20211230_112207.csv
***Scan Config Information***,,,,,,,***Reference Scan Information***,,,,,,,,
Scan Config Name:,Column 1,,,,,,Scan Config Name:,Built-in Factory Reference,,,,,,
Scan Config Type:,Slew,Num Section:,1,,,,Scan Config Type:,Slew,Num Section:,1,,,,,
Section Config Type:,Column,,,,,,Section Config Type:,Column,,,,,,,
Start Wavelength (nm):,900,,,,,,Start Wavelength (nm):,900.0,,,,,,
End Wavelength (nm):,1700,,,,,,End Wavelength (nm):,1700.0,,,,,,
Pattern Width (nm):,7.03,,,,,,Pattern Width (nm):,7.03,,,,,,,
Exposure (ms):,0.635,,,,,,Exposure (ms):,0.635,,,,,,,
Digital Resolution:,228,,,,,,Digital Resolution:,228,,,,,,,
Num Repeats:,6,,,,,,Num Repeats:,30,,,,,,,
PGA Gain:,64,,,,,,PGA Gain:,64,,,,,,
System Temp (C):,20.14,,,,,,System Temp (C):,24.17,,,,,,,
Humidity (%):,40.87,,,,,,Humidity (%):,30.0,,,,,,
Battery Capacity (%):,64,,,,,,Lamp Intensity:,2449,,,,,,,
Lamp Intensity:,2452,,,,,,Data Date-Time:,19/12/12T12:44:54,,,,,,
Data Date-Time:,18/1/1T7:1:26,,,,,,,,,,,,,,
Total Measurement Time in sec:,4.469,,,,,,,,,,,,,
***General Information***,,,,,,,***Calibration Coefficients***,,,,,,,,
Model Name:,NIR-S-G1,,,,,,Shift Vector Coefficients:,-8.44101,0.0554567,-8.45244e-05,,,,,
Serial Number:,947R055,95UB122GC0A947R055,,,,,Pixel to Wavelength Coefficients:,1795.87,-0.92014,-0.00023961,,,,,
APP Version:,2.16.7,,,,,,,,,,,,,
TIVA Version:,2.4.4,,,,,,***Lamp Usage * **,,,,,,,,
UUID:,de:67:c:88:67:2c:2d:21,,,,,,Total Time(HH:MM:SS):,12min 12sec ,,,,,,,
Main Board Version:,D,,,,,,***Device/Error Status***,,,,,,,,
Detector Board Version:,B,,,,,,Device Status:,0x00000031,,,,,,
,,,,,,,Error status:,0x00000000,Error Code:,0x00000000000000000000000000000000,,,,,
,,,,,,,,,Error Details:,Not Found,,,,,
***Scan Data***,,,,,,,,,,,,,,,
Wavelength (nm),Absorbance (AU),Reference Signal (unitless),Sample Signal (unitless)
901.841,1.20066,99968.0,6298
905.754,1.24994,108993.0,6130
909.663,1.24384,118185.0,6741
913.568,1.223481,129285.0,7728
917.469,1.25097,143347.0,8043
921.365,1.24015,160437.0,9229
925.257,1.24897,180387.0,10168
929.144,1.24293,201426.0,11513
933.028,1.24373,220694.0,12591
936.906,1.235126,237501.0,13821
942.072,1.24051,256956.0,14769
945.94,1.25054,270636.0,15200
949.805,1.24884,283621.0,15992
953.665,1.23776,296982.0,17178
957.521,1.24021,310733.0,17872
961.373,1.2381,324587.0,18760
965.22,1.24141,339205.0,19456
969.063,1.24557,353669.0,20092
972.902,1.24453,368253.0,20971
976.736,1.25742,382531.0,21147
981.842,1.25114,399901.0,22429
985.666,1.24867,411528.0,23213
989.486,1.25007,422199.0,23738
993.302,1.26086,431172.0,23648
997.113,1.26247,438051.0,23936
1000.92,1.26156,444216.0,24324
1004.72,1.266062,449307.0,24349
1008.52,1.2684,453601.0,24450
1012.32,1.2684,456801.0,24622
1016.11,1.27031,459312.0,24649
1021.15,1.27075,461643.0,24749
1024.93,1.27965,463069.0,24322
1028.71,1.27858,463868.0,24424
1032.48,1.28054,464326.0,24338
1036.24,1.28781,466001.0,24020
1040.01,1.28846,466870.0,24029
1043.77,1.29495,467033.0,23681
1047.52,1.29588,467045.0,23631
1051.27,1.295406,467467.0,23678
1055.01,1.29139,467627.0,23906
1060,1.29847,468351.0,23556
1063.74,1.29991,469050.0,23513
1067.47,1.30112,469880.0,23489
1071.19,1.29738,471228.0,23760
1074.92,1.30697,472558.0,23307
1078.63,1.3049,474087.0,23494
1082.35,1.30591,476569.0,23562
1086.06,1.30733,479445.0,23627
1089.76,1.30799,481756.0,23705
1093.46,1.31701,485147.0,23381
1098.39,1.30948,489755.0,24016
1102.08,1.31258,493535.0,24029
1105.77,1.325975,497426.0,23483
1109.45,1.31633,501308.0,24198
1113.13,1.32666,505725.0,23837
1116.8,1.32412,509421.0,24152
1120.47,1.32416,513217.0,24330
1124.13,1.33225,517470.0,24079
1127.79,1.32952,521690.0,24428
1131.45,1.33172,526099.0,24510
1136.32,1.33954,531329.0,24312
1139.96,1.33487,535549.0,24770
1143.61,1.35067,539808.0,24075
1147.24,1.34754,543900.0,24433
1150.88,1.360928,547908.0,23866
1154.5,1.36667,552170.0,23736
1158.13,1.37266,556773.0,23606
1161.75,1.38417,561098.0,23167
1165.36,1.39473,565898.0,22804
1168.98,1.395193,571300.0,22997
1172.58,1.4116,576602.0,22350
1177.39,1.42279,584320.0,22073
1180.98,1.43529,589396.0,21633
1184.58,1.44693,596143.0,21302
1188.16,1.45475,602955.0,21161
1191.75,1.47229,609704.0,20551
1195.33,1.4861,617215.0,20153
1198.9,1.50626,624471.0,19465
1202.48,1.53743,632472.0,18349
1206.04,1.570254,640381.0,17226
1209.61,1.576508,648161.0,17186
1214.35,1.59537,659999.0,16756
1217.9,1.583327,668609.0,17452
1221.45,1.56513,677405.0,18438
1224.99,1.53098,686281.0,20208
1228.53,1.50218,695317.0,21878
1232.07,1.47424,704063.0,23625
1235.6,1.45385,713007.0,25075
1239.13,1.447576,721330.0,25737
1242.65,1.43178,730030.0,27012
1246.17,1.4223,737591.0,27894
1250.85,1.42375,746809.0,28149
1254.36,1.409647,753336.0,29332
1257.86,1.40441,759907.0,29947
1261.36,1.407123,766538.0,30020
1264.86,1.40715,774802.0,30342
1268.35,1.40185,784025.0,31080
1271.83,1.40179,794336.0,31493
1275.32,1.40962,804198.0,31314
1278.79,1.405903,813836.0,31962
1282.27,1.40187,823595.0,32647
1286.89,1.400541,834533.0,33182
1290.36,1.4031,842581.0,33305
1293.81,1.40529,849301.0,33402
1297.27,1.40687,856026.0,33544
1300.72,1.40295,862498.0,34104
1304.17,1.40246,868068.0,34363
1307.61,1.402501,872869.0,34550
1311.05,1.4025,877616.0,34738
1314.48,1.40228,881872.0,34924
1317.91,1.4033,885520.0,34986
1322.47,1.40347,888917.0,35107
1325.89,1.40103,891687.0,35415
1329.31,1.40423,894001.0,35246
1332.72,1.40205,895438.0,35480
1336.12,1.40024,896641.0,35676
1339.52,1.40467,897974.0,35367
1342.92,1.4051,898777.0,35363
1346.31,1.40525,898783.0,35351
1349.7,1.40441,898350.0,35403
1353.09,1.40981,896784.0,34904
1357.59,1.410673,895293.0,34777
1360.97,1.41692,892755.0,34183
1364.34,1.416489,890430.0,34128
1367.7,1.42725,888504.0,33221
1371.06,1.43055,885825.0,32870
1374.42,1.44218,881046.0,31829
1377.77,1.45244,874030.0,30838
1381.12,1.47368,865751.0,29088
1384.47,1.47956,857799.0,28433
1387.81,1.50829,851759.0,26426
1392.25,1.5327,846500.0,24827
1395.58,1.53224,843622.0,24769
1398.91,1.52363,841228.0,25193
1402.23,1.5146,838489.0,25639
1405.55,1.51168,836065.0,25737
1408.86,1.51705,834396.0,25370
1412.17,1.53012,832187.0,24553
1415.47,1.53472,830123.0,24234
1418.77,1.54372,828244.0,23683
1422.07,1.53896,827314.0,23917
1426.45,1.53575,826435.0,24069
1429.74,1.52671,825475.0,24547
1433.02,1.52782,824938.0,24468
1436.29,1.52614,823959.0,24534
1439.57,1.52011,823822.0,24873
1442.83,1.50773,823184.0,25572
1446.1,1.50529,821953.0,25678
1449.36,1.50011,821135.0,25960
1452.61,1.49058,819413.0,26480
1455.86,1.48834,817492.0,26555
1459.11,1.47249,814862.0,27453
1463.43,1.46987,811075.0,27491
1466.67,1.46402,807671.0,27747
1469.9,1.46094,803699.0,27807
1473.13,1.459452,799396.0,27753
1476.35,1.45566,795129.0,27847
1479.57,1.45155,790127.0,27935
1482.78,1.44577,784937.0,28123
1486,1.44551,779544.0,27947
1489.2,1.4384,773733.0,28196
1492.4,1.43592,767463.0,28128
1496.67,1.44216,758614.0,27407
1499.86,1.43873,751802.0,27376
1503.04,1.43597,744297.0,27276
1506.23,1.43618,735980.0,26958
1509.41,1.43081,728040.0,26999
1512.58,1.42973,719703.0,26756
1515.75,1.427745,710982.0,26553
1518.92,1.42968,702409.0,26116
1522.08,1.430756,693280.0,25713
1525.24,1.43028,683935.0,25394
1529.44,1.430702,671492.0,24908
1532.59,1.43176,661352.0,24472
1535.73,1.44147,650841.0,23551
1538.87,1.43854,640156.0,23321
1542,1.43309,629036.0,23205
1545.13,1.43612,617445.0,22619
1548.26,1.42471,605527.0,22773
1551.38,1.42263,594133.0,22452
1554.49,1.42143,582894.0,22088
1557.61,1.42136,571271.0,21651
1561.75,1.42029,555940.0,21122
1564.85,1.42388,544812.0,20529
1567.95,1.41249,533402.0,20633
1571.05,1.41111,521915.0,20253
1574.14,1.407754,510788.0,19975
1577.22,1.419418,499607.0,19020
1580.3,1.41479,487992.0,18777
1583.38,1.4039,476265.0,18791
1586.45,1.42319,464618.0,17535
1589.52,1.41564,452782.0,17388
1593.6,1.42432,436897.0,16446
1596.66,1.40248,425551.0,16845
1599.71,1.41005,414191.0,16112
1602.76,1.41227,402799.0,15589
1605.81,1.41322,391352.0,15113
1608.85,1.42607,380811.0,14277
1611.89,1.41963,370076.0,14082
1614.92,1.42776,359798.0,13437
1617.95,1.42006,349165.0,13273
1620.97,1.43411,338717.0,12466
1624.99,1.4123,325435.0,12594
1628.01,1.41448,315463.0,12147
1631.02,1.42966,305570.0,11362
1634.02,1.41983,295762.0,11249
1637.02,1.42325,286306.0,10804
1640.02,1.42904,276696.0,10303
1643.01,1.401007,267004.0,10605
1646,1.42599,257531.0,9657
1648.98,1.4159,247817.0,9511
1651.96,1.45103,238547.0,8444
1655.93,1.442323,225092.0,8129
1658.89,1.44659,214425.0,7668
1661.86,1.411387,202241.0,7843
1664.82,1.46883,188046.0,6389
1667.78,1.44485,171566.0,6160
1670.73,1.45783,154101.0,5370
1673.67,1.42618,134892.0,5056
1676.62,1.465,115325.0,3953
1679.56,1.46586,97255.0,3327
1682.49,1.48566,81017.0,2648
1686.4,1.50506,63571.0,1987
1689.32,1.53856,53566.0,1550
1692.24,1.53246,45493.0,1335
1695.16,1.55645,39217.0,1089
1698.07,1.51353,33537.0,1028
1700.97,1.59142,29118.0,746

File: LDPE4_Column 1_20211230_112222.csv
***Scan Config Information***,,,,,,,***Reference Scan Information***,,,,,,,,
Scan Config Name:,Column 1,,,,,,Scan Config Name:,Built-in Factory Reference,,,,,,
Scan Config Type:,Slew,Num Section:,1,,,,Scan Config Type:,Slew,Num Section:,1,,,,,
Section Config Type:,Column,,,,,,Section Config Type:,Column,,,,,,,
Start Wavelength (nm):,900,,,,,,Start Wavelength (nm):,900.0,,,,,,
End Wavelength (nm):,1700,,,,,,End Wavelength (nm):,1700.0,,,,,,
Pattern Width (nm):,7.03,,,,,,Pattern Width (nm):,7.03,,,,,,,
Exposure (ms):,0.635,,,,,,Exposure (ms):,0.635,,,,,,,
Digital Resolution:,228,,,,,,Digital Resolution:,228,,,,,,,
Num Repeats:,6,,,,,,Num Repeats:,30,,,,,,,
PGA Gain:,64,,,,,,PGA Gain:,64,,,,,,
System Temp (C):,20.5,,,,,,System Temp (C):,24.17,,,,,,,
Humidity (%):,40.99,,,,,,Humidity (%):,30.0,,,,,,
Battery Capacity (%):,63,,,,,,Lamp Intensity:,2449,,,,,,,
Lamp Intensity:,2456,,,,,,Data Date-Time:,19/12/12T12:44:54,,,,,,
Data Date-Time:,18/1/1T7:1:41,,,,,,,,,,,,,,
Total Measurement Time in sec:,4.291,,,,,,,,,,,,,
***General Information***,,,,,,,***Calibration Coefficients***,,,,,,,,
Model Name:,NIR-S-G1,,,,,,Shift Vector Coefficients:,-8.44101,0.0554567,-8.45244e-05,,,,,
Serial Number:,947R055,95UB122GC0A947R055,,,,,Pixel to Wavelength Coefficients:,1795.87,-0.92014,-0.00023961,,,,,
APP Version:,2.16.7,,,,,,,,,,,,,
TIVA Version:,2.4.4,,,,,,***Lamp Usage * **,,,,,,,,
UUID:,de:67:c:88:67:2c:2d:21,,,,,,Total Time(HH:MM:SS):,12min 15sec ,,,,,,,
Main Board Version:,D,,,,,,***Device/Error Status***,,,,,,,,
Detector Board Version:,B,,,,,,Device Status:,0x00000031,,,,,,
,,,,,,,Error status:,0x00000000,Error Code:,0x00000000000000000000000000000000,,,,,
,,,,,,,,,Error Details:,Not Found,,,,,
***Scan Data***,,,,,,,,,,,,,,,
Wavelength (nm),Absorbance (AU),Reference Signal (unitless),Sample Signal (unitless)
901.841,1.26187,99968.0,5470
905.754,1.324076,108993.0,5168
909.663,1.299874,118185.0,5925
913.568,1.28353,129285.0,6730
917.469,1.30032,143347.0,7179
921.365,1.28712,160437.0,8283
925.257,1.30511,180387.0,8935
929.144,1.30173,201426.0,10055
933.028,1.30007,220694.0,11059
936.906,1.29699,237501.0,11986
942.072,1.3034,256956.0,12778
945.94,1.2895,270636.0,13896
949.805,1.29305,283621.0,14444
953.665,1.29134,296982.0,15184
957.521,1.27983,310733.0,16314
961.373,1.28321,324587.0,16909
965.22,1.29109,339205.0,17353
969.063,1.29448,353669.0,17952
972.902,1.28675,368253.0,19028
976.736,1.29156,382531.0,19548
981.842,1.2833,399901.0,20828
985.666,1.28899,411528.0,21155
989.486,1.29906,422199.0,21206
993.302,1.2893,431172.0,22149
997.113,1.30319,438051.0,21794
1000.92,1.30267,444216.0,22127
1004.72,1.30073,449307.0,22481
1008.52,1.304125,453601.0,22519
1012.32,1.30677,456801.0,22540
1016.11,1.30537,459312.0,22737
1021.15,1.31224,461643.0,22494
1024.93,1.31092,463069.0,22632
1028.71,1.32413,463868.0,21992
1032.48,1.31451,464326.0,22507
1036.24,1.32272,466001.0,22165
1040.01,1.31831,466870.0,22433
1043.77,1.32811,467033.0,21940
1047.52,1.3256,467045.0,22068
1051.27,1.32861,467467.0,21935
1055.01,1.32364,467627.0,22195
1060,1.32833,468351.0,21991
1063.74,1.32471,469050.0,22208
1067.47,1.32325,469880.0,22322
1071.19,1.33964,471228.0,21557
1074.92,1.32981,472558.0,22113
1078.63,1.33653,474087.0,21844
1082.35,1.33547,476569.0,22012
1086.06,1.33891,479445.0,21970
1089.76,1.33714,481756.0,22166
1093.46,1.33886,485147.0,22234
1098.39,1.349396,489755.0,21907
1102.08,1.34499,493535.0,22301
1105.77,1.35243,497426.0,22095
1109.45,1.34627,501308.0,22586
1113.13,1.34434,505725.0,22886
1116.8,1.34529,509421.0,23003
1120.47,1.353396,513217.0,22746
1124.13,1.35525,517470.0,22837
1127.79,1.354572,521690.0,23059
1131.45,1.36311,526099.0,22801
1136.32,1.36572,531329.0,22890
1139.96,1.37144,535549.0,22770
1143.61,1.37299,539808.0,22869
1147.24,1.38322,543900.0,22506
1150.88,1.37929,547908.0,22878
1154.5,1.38931,552170.0,22530
1158.13,1.39611,556773.0,22365
1161.75,1.40747,561098.0,21957
1165.36,1.41478,565898.0,21775
1168.98,1.42985,571300.0,21233
1172.58,1.42456,576602.0,21693
1177.39,1.43797,584320.0,21315
1180.98,1.45679,589396.0,20588
1184.58,1.46121,596143.0,20613
1188.16,1.47804,602955.0,20056
1191.75,1.48718,609704.0,19858
1195.33,1.50452,617215.0,19316
1198.9,1.53119,624471.0,18379
1202.48,1.54319,632472.0,18107
1206.04,1.574154,640381.0,17072
1209.61,1.58723,648161.0,16767
1214.35,1.60309,659999.0,16461
1217.9,1.59813,668609.0,16867
1221.45,1.571924,677405.0,18152
1224.99,1.55408,686281.0,19161
1228.53,1.53185,695317.0,20433
1232.07,1.494465,704063.0,22550
1235.6,1.48062,713007.0,23576
1239.13,1.4637,721330.0,24799
1242.65,1.46048,730030.0,25285
1246.17,1.44766,737591.0,26312
1250.85,1.4448,746809.0,26817
1254.36,1.43791,753336.0,27484
1257.86,1.435717,759907.0,27864
1261.36,1.43413,766538.0,28210
1264.86,1.43713,774802.0,28318
1268.35,1.430437,784025.0,29100
1271.83,1.425,794336.0,29854
1275.32,1.42735,804198.0,30062
1278.79,1.42554,813836.0,30549
1282.27,1.42715,823595.0,30801
1286.89,1.42633,834533.0,31269
1290.36,1.42711,842581.0,31514
1293.81,1.42745,849301.0,31740
1297.27,1.42337,856026.0,32294
1300.72,1.42928,862498.0,32098
1304.17,1.42179,868068.0,32867
1307.61,1.4195,872869.0,33224
1311.05,1.42914,877616.0,32671
1314.48,1.425512,881872.0,33105
1317.91,1.43154,885520.0,32784
1322.47,1.42826,888917.0,33159
1325.89,1.42583,891687.0,33449
1329.31,1.42664,894001.0,33473
1332.72,1.42891,895438.0,33352
1336.12,1.430631,896641.0,33265
1339.52,1.43014,897974.0,33352
1342.92,1.43054,898777.0,33351
1346.31,1.42845,898783.0,33512
1349.7,1.42782,898350.0,33545
1353.09,1.4373,896784.0,32763
1357.59,1.43778,895293.0,32673
1360.97,1.44361,892755.0,32146
1364.34,1.44207,890430.0,32176
1367.7,1.44992,888504.0,31531
1371.06,1.45446,885825.0,31109
1374.42,1.46394,881046.0,30273
1377.77,1.47445,874030.0,29314
1381.12,1.48232,865751.0,28515
1384.47,1.50836,857799.0,26609
1387.81,1.52831,851759.0,25235
1392.25,1.55743,846500.0,23453
1395.58,1.55779,843622.0,23354
1398.91,1.5487,841228.0,23780
1402.23,1.53755,838489.0,24319
1405.55,1.538335,836065.0,24205
1408.86,1.54684,834396.0,23688
1412.17,1.55253,832187.0,23318
1415.47,1.56079,830123.0,22822
1418.77,1.56766,828244.0,22413
1422.07,1.56531,827314.0,22509
1426.45,1.56258,826435.0,22627
1429.74,1.56066,825475.0,22701
1433.02,1.55963,824938.0,22740
1436.29,1.55288,823959.0,23069
1439.57,1.54614,823822.0,23426
1442.83,1.53675,823184.0,23919
1446.1,1.544408,821953.0,23466
1449.36,1.5318,821135.0,24133
1452.61,1.52372,819413.0,24535
1455.86,1.52141,817492.0,24608
1459.11,1.51767,814862.0,24741
1463.43,1.50904,811075.0,25120
1466.67,1.50449,807671.0,25278
1469.9,1.495769,803699.0,25664
1473.13,1.50214,799396.0,25155
1476.35,1.49412,795129.0,25487
1479.57,1.48633,790127.0,25785
1482.78,1.49026,784937.0,25385
1486,1.48561,779544.0,25482
1489.2,1.4805,773733.0,25591
1492.4,1.47448,767463.0,25738
1496.67,1.486393,758614.0,24753
1499.86,1.4761,751802.0,25119
1503.04,1.48104,744297.0,24587
1506.23,1.47829,735980.0,24467
1509.41,1.47601,728040.0,24330
1512.58,1.47438,719703.0,24142
1515.75,1.475939,710982.0,23764
1518.92,1.47489,702409.0,23534
1522.08,1.47681,693280.0,23126
1525.24,1.481541,683935.0,22567
1529.44,1.4737,671492.0,22560
1532.59,1.47748,661352.0,22027
1535.73,1.48195,650841.0,21455
1538.87,1.47954,640156.0,21220
1542,1.47942,629036.0,20857
1545.13,1.47961,617445.0,20464
1548.26,1.47719,605527.0,20181
1551.38,1.47327,594133.0,19981
1554.49,1.47271,582894.0,19628
1557.61,1.47027,571271.0,19345
1561.75,1.471772,555940.0,18761
1564.85,1.45644,544812.0,19046
1567.95,1.473208,533402.0,17941
1571.05,1.46608,521915.0,17845
1574.14,1.46829,510788.0,17376
1577.22,1.45683,499607.0,17450
1580.3,1.47243,487992.0,16443
1583.38,1.462502,476265.0,16419
1586.45,1.4688,464618.0,15787
1589.52,1.46755,452782.0,15429
1593.6,1.46731,436897.0,14896
1596.66,1.46552,425551.0,14569
1599.71,1.46329,414191.0,14253
1602.76,1.46361,402799.0,13851
1605.81,1.463813,391352.0,13451
1608.85,1.47673,380811.0,12705
1611.89,1.47083,370076.0,12516
1614.92,1.46952,359798.0,12205
1617.95,1.47425,349165.0,11716
1620.97,1.47183,338717.0,11429
1624.99,1.4634,325435.0,11196
1628.01,1.47817,315463.0,10490
1631.02,1.473498,305570.0,10271
1634.02,1.484798,295762.0,9686
1637.02,1.47578,286306.0,9573
1640.02,1.48363,276696.0,9086
1643.01,1.47426,267004.0,8959
1646,1.47031,257531.0,8720
1648.98,1.45883,247817.0,8616
1651.96,1.49642,238547.0,7606
1655.93,1.48472,225092.0,7373
1658.89,1.52205,214425.0,6445
1661.86,1.50091,202241.0,6382
1664.82,1.49626,188046.0,5998
1667.78,1.51213,171566.0,5276
1670.73,1.49232,154101.0,4960
1673.67,1.51869,134892.0,4086
1676.62,1.546182,115325.0,3279
1679.56,1.543711,97255.0,2781
1682.49,1.52315,81017.0,2429
1686.4,1.55431,63571.0,1774
1689.32,1.78688,53566.0,875
1692.24,1.5377,45493.0,1319
1695.16,1.48423,39217.0,1286
1698.07,1.67981,33537.0,701
1700.97,1.63038,29118.0,682