Folder: Dorgan_Laubach_Research/Data/LLDPE (part 6)

File: LLDPE11_Column 1_20211230_113655.csv
***Scan Config Information***,,,,,,,***Reference Scan Information***,,,,,,,,
Scan Config Name:,Column 1,,,,,,Scan Config Name:,Built-in Factory Reference,,,,,,
Scan Config Type:,Slew,Num Section:,1,,,,Scan Config Type:,Slew,Num Section:,1,,,,,
Section Config Type:,Column,,,,,,Section Config Type:,Column,,,,,,,
Start Wavelength (nm):,900,,,,,,Start Wavelength (nm):,900.0,,,,,,
End Wavelength (nm):,1700,,,,,,End Wavelength (nm):,1700.0,,,,,,
Pattern Width (nm):,7.03,,,,,,Pattern Width (nm):,7.03,,,,,,,
Exposure (ms):,0.635,,,,,,Exposure (ms):,0.635,,,,,,,
Digital Resolution:,228,,,,,,Digital Resolution:,228,,,,,,,
Num Repeats:,6,,,,,,Num Repeats:,30,,,,,,,
PGA Gain:,64,,,,,,PGA Gain:,64,,,,,,
System Temp (C):,30.22,,,,,,System Temp (C):,24.17,,,,,,,
Humidity (%):,36.76,,,,,,Humidity (%):,30.0,,,,,,
Battery Capacity (%):,54,,,,,,Lamp Intensity:,2449,,,,,,,
Lamp Intensity:,2614,,,,,,Data Date-Time:,19/12/12T12:44:54,,,,,,
Data Date-Time:,18/1/1T7:16:14,,,,,,,,,,,,,,
Total Measurement Time in sec:,4.981,,,,,,,,,,,,,
***General Information***,,,,,,,***Calibration Coefficients***,,,,,,,,
Model Name:,NIR-S-G1,,,,,,Shift Vector Coefficients:,-8.44101,0.0554567,-8.45244e-05,,,,,
Serial Number:,947R055,95UB122GC0A947R055,,,,,Pixel to Wavelength Coefficients:,1795.87,-0.92014,-0.00023961,,,,,
APP Version:,2.16.7,,,,,,,,,,,,,
TIVA Version:,2.4.4,,,,,,***Lamp Usage * **,,,,,,,,
UUID:,de:67:c:88:67:2c:2d:21,,,,,,Total Time(HH:MM:SS):,14min 0sec ,,,,,,,
Main Board Version:,D,,,,,,***Device/Error Status***,,,,,,,,
Detector Board Version:,B,,,,,,Device Status:,0x00000031,,,,,,
,,,,,,,Error status:,0x00000000,Error Code:,0x00000000000000000000000000000000,,,,,
,,,,,,,,,Error Details:,Not Found,,,,,
***Scan Data***,,,,,,,,,,,,,,,
Wavelength (nm),Absorbance (AU),Reference Signal (unitless),Sample Signal (unitless)
901.841,1.27338,99968.0,5327
905.754,1.23716,108993.0,6313
909.663,1.25216,118185.0,6613
913.568,1.24261,129285.0,7395
917.469,1.25739,143347.0,7925
921.365,1.26709,160437.0,8674
925.257,1.26627,180387.0,9771
929.144,1.25077,201426.0,11307
933.028,1.2605,220694.0,12114
936.906,1.26491,237501.0,12905
942.072,1.25392,256956.0,14320
945.94,1.25212,270636.0,15145
949.805,1.25028,283621.0,15939
953.665,1.2405,296982.0,17070
957.521,1.242065,310733.0,17796
961.373,1.24552,324587.0,18442
965.22,1.241699,339205.0,19443
969.063,1.23697,353669.0,20494
972.902,1.23592,368253.0,21391
976.736,1.23725,382531.0,22152
981.842,1.23855,399901.0,23089
985.666,1.23837,411528.0,23770
989.486,1.24343,422199.0,24104
993.302,1.2365,431172.0,25012
997.113,1.24431,438051.0,24958
1000.92,1.23663,444216.0,25761
1004.72,1.2416,449307.0,25760
1008.52,1.24544,453601.0,25777
1012.32,1.24179,456801.0,26178
1016.11,1.2409,459312.0,26376
1021.15,1.24295,461643.0,26385
1024.93,1.25334,463069.0,25841
1028.71,1.25127,463868.0,26009
1032.48,1.25237,464326.0,25969
1036.24,1.2518,466001.0,26097
1040.01,1.250729,466870.0,26210
1043.77,1.2453,467033.0,26549
1047.52,1.25594,467045.0,25907
1051.27,1.26444,467467.0,25428
1055.01,1.25384,467627.0,26065
1060,1.246998,468351.0,26520
1063.74,1.24689,469050.0,26566
1067.47,1.25959,469880.0,25846
1071.19,1.25286,471228.0,26325
1074.92,1.24822,472558.0,26683
1078.63,1.2563,474087.0,26276
1082.35,1.25251,476569.0,26645
1086.06,1.2554,479445.0,26628
1089.76,1.2563,481756.0,26701
1093.46,1.25581,485147.0,26919
1098.39,1.25355,489755.0,27317
1102.08,1.26028,493535.0,27104
1105.77,1.26077,497426.0,27287
1109.45,1.27072,501308.0,26877
1113.13,1.2542,505725.0,28165
1116.8,1.26113,509421.0,27922
1120.47,1.26484,513217.0,27891
1124.13,1.25944,517470.0,28474
1127.79,1.26626,521690.0,28259
1131.45,1.27125,526099.0,28172
1136.32,1.26653,531329.0,28763
1139.96,1.275848,535549.0,28376
1143.61,1.271612,539808.0,28882
1147.24,1.27572,543900.0,28827
1150.88,1.28412,547908.0,28483
1154.5,1.28787,552170.0,28458
1158.13,1.29779,556773.0,28047
1161.75,1.302688,561098.0,27948
1165.36,1.31462,565898.0,27423
1168.98,1.304817,571300.0,28317
1172.58,1.31688,576602.0,27797
1177.39,1.32673,584320.0,27537
1180.98,1.34022,589396.0,26927
1184.58,1.34783,596143.0,26762
1188.16,1.35338,602955.0,26724
1191.75,1.3652,609704.0,26298
1195.33,1.36999,617215.0,26330
1198.9,1.3877,624471.0,25575
1202.48,1.41124,632472.0,24536
1206.04,1.42964,640381.0,23812
1209.61,1.45266,648161.0,22857
1214.35,1.457438,659999.0,23020
1217.9,1.44648,668609.0,23916
1221.45,1.4323,677405.0,25035
1224.99,1.41452,686281.0,26423
1228.53,1.39568,695317.0,27958
1232.07,1.36638,704063.0,30285
1235.6,1.35698,713007.0,31341
1239.13,1.34453,721330.0,32629
1242.65,1.33844,730030.0,33489
1246.17,1.33209,737591.0,34334
1250.85,1.32868,746809.0,35037
1254.36,1.32776,753336.0,35418
1257.86,1.32287,759907.0,36132
1261.36,1.32211,766538.0,36511
1264.86,1.32054,774802.0,37038
1268.35,1.32101,784025.0,37439
1271.83,1.31627,794336.0,38347
1275.32,1.31855,804198.0,38620
1278.79,1.31661,813836.0,39258
1282.27,1.31289,823595.0,40070
1286.89,1.3156,834533.0,40350
1290.36,1.31123,842581.0,41151
1293.81,1.30798,849301.0,41791
1297.27,1.31647,856026.0,41306
1300.72,1.31408,862498.0,41848
1304.17,1.31548,868068.0,41983
1307.61,1.31895,872869.0,41879
1311.05,1.31118,877616.0,42867
1314.48,1.3169,881872.0,42511
1317.91,1.30971,885520.0,43400
1322.47,1.31115,888917.0,43422
1325.89,1.31291,891687.0,43381
1329.31,1.311503,894001.0,43635
1332.72,1.322,895438.0,42661
1336.12,1.31427,896641.0,43486
1339.52,1.3169,897974.0,43288
1342.92,1.31862,898777.0,43155
1346.31,1.31737,898783.0,43280
1349.7,1.32193,898350.0,42807
1353.09,1.31902,896784.0,43020
1357.59,1.31965,895293.0,42886
1360.97,1.32394,892755.0,42344
1364.34,1.32848,890430.0,41795
1367.7,1.33238,888504.0,41331
1371.06,1.34149,885825.0,40351
1374.42,1.34456,881046.0,39851
1377.77,1.35935,874030.0,38210
1381.12,1.36266,865751.0,37561
1384.47,1.37988,857799.0,35769
1387.81,1.39857,851759.0,34021
1392.25,1.42058,846500.0,32140
1395.58,1.41978,843622.0,32090
1398.91,1.41434,841228.0,32402
1402.23,1.404694,838489.0,33022
1405.55,1.401272,836065.0,33187
1408.86,1.40903,834396.0,32534
1412.17,1.421139,832187.0,31556
1415.47,1.43079,830123.0,30786
1418.77,1.428481,828244.0,30880
1422.07,1.42826,827314.0,30861
1426.45,1.42534,826435.0,31036
1429.74,1.42188,825475.0,31248
1433.02,1.42708,824938.0,30856
1436.29,1.41993,823959.0,31331
1439.57,1.41838,823822.0,31438
1442.83,1.41639,823184.0,31558
1446.1,1.41548,821953.0,31577
1449.36,1.40262,821135.0,32493
1452.61,1.402797,819413.0,32412
1455.86,1.39841,817492.0,32664
1459.11,1.39285,814862.0,32979
1463.43,1.39532,811075.0,32639
1466.67,1.38323,807671.0,33420
1469.9,1.38318,803699.0,33259
1473.13,1.38389,799396.0,33027
1476.35,1.37752,795129.0,33336
1479.57,1.37854,790127.0,33049
1482.78,1.37994,784937.0,32726
1486,1.37624,779544.0,32779
1489.2,1.374349,773733.0,32677
1492.4,1.37263,767463.0,32541
1496.67,1.37529,758614.0,31969
1499.86,1.36778,751802.0,32235
1503.04,1.3708,744297.0,31692
1506.23,1.37222,735980.0,31235
1509.41,1.36907,728040.0,31123
1512.58,1.37631,719703.0,30258
1515.75,1.379,710982.0,29707
1518.92,1.37284,702409.0,29768
1522.08,1.37883,693280.0,28979
1525.24,1.38331,683935.0,28295
1529.44,1.38229,671492.0,27845
1532.59,1.38556,661352.0,27219
1535.73,1.38742,650841.0,26672
1538.87,1.38848,640156.0,26170
1542,1.39089,629036.0,25573
1545.13,1.38481,617445.0,25456
1548.26,1.384715,605527.0,24970
1551.38,1.37574,594133.0,25012
1554.49,1.37948,582894.0,24328
1557.61,1.37553,571271.0,24061
1561.75,1.377616,555940.0,23303
1564.85,1.38137,544812.0,22640
1567.95,1.37881,533402.0,22297
1571.05,1.38024,521915.0,21745
1574.14,1.37742,510788.0,21420
1577.22,1.37468,499607.0,21084
1580.3,1.38225,487992.0,20238
1583.38,1.37087,476265.0,20276
1586.45,1.37274,464618.0,19695
1589.52,1.37991,452782.0,18879
1593.6,1.37974,436897.0,18224
1596.66,1.38371,425551.0,17589
1599.71,1.376951,414191.0,17388
1602.76,1.37528,402799.0,16975
1605.81,1.38915,391352.0,15974
1608.85,1.38509,380811.0,15690
1611.89,1.38568,370076.0,15227
1614.92,1.37608,359798.0,15135
1617.95,1.37397,349165.0,14759
1620.97,1.3942,338717.0,13666
1624.99,1.3936,325435.0,13148
1628.01,1.39272,315463.0,12771
1631.02,1.3979,305570.0,12224
1634.02,1.40503,295762.0,11639
1637.02,1.40437,286306.0,11284
1640.02,1.39962,276696.0,11025
1643.01,1.40269,267004.0,10564
1646,1.41122,257531.0,9991
1648.98,1.41413,247817.0,9550
1651.96,1.391564,238547.0,9683
1655.93,1.39841,225092.0,8994
1658.89,1.39026,214425.0,8730
1661.86,1.40251,202241.0,8005
1664.82,1.41237,188046.0,7276
1667.78,1.4009,171566.0,6816
1670.73,1.39095,154101.0,6264
1673.67,1.37221,134892.0,5725
1676.62,1.3276,115325.0,5424
1679.56,1.36126,97255.0,4233
1682.49,1.38056,81017.0,3373
1686.4,1.375773,63571.0,2676
1689.32,1.37248,53566.0,2272
1692.24,1.42444,45493.0,1712
1695.16,1.36662,39217.0,1686
1698.07,1.43703,33537.0,1226
1700.97,1.41533,29118.0,1119

File: LLDPE12_Column 1_20211230_113709.csv
***Scan Config Information***,,,,,,,***Reference Scan Information***,,,,,,,,
Scan Config Name:,Column 1,,,,,,Scan Config Name:,Built-in Factory Reference,,,,,,
Scan Config Type:,Slew,Num Section:,1,,,,Scan Config Type:,Slew,Num Section:,1,,,,,
Section Config Type:,Column,,,,,,Section Config Type:,Column,,,,,,,
Start Wavelength (nm):,900,,,,,,Start Wavelength (nm):,900.0,,,,,,
End Wavelength (nm):,1700,,,,,,End Wavelength (nm):,1700.0,,,,,,
Pattern Width (nm):,7.03,,,,,,Pattern Width (nm):,7.03,,,,,,,
Exposure (ms):,0.635,,,,,,Exposure (ms):,0.635,,,,,,,
Digital Resolution:,228,,,,,,Digital Resolution:,228,,,,,,,
Num Repeats:,6,,,,,,Num Repeats:,30,,,,,,,
PGA Gain:,64,,,,,,PGA Gain:,64,,,,,,
System Temp (C):,30.35,,,,,,System Temp (C):,24.17,,,,,,,
Humidity (%):,36.65,,,,,,Humidity (%):,30.0,,,,,,
Battery Capacity (%):,54,,,,,,Lamp Intensity:,2449,,,,,,,
Lamp Intensity:,2616,,,,,,Data Date-Time:,19/12/12T12:44:54,,,,,,
Data Date-Time:,18/1/1T7:16:28,,,,,,,,,,,,,,
Total Measurement Time in sec:,4.386,,,,,,,,,,,,,
***General Information***,,,,,,,***Calibration Coefficients***,,,,,,,,
Model Name:,NIR-S-G1,,,,,,Shift Vector Coefficients:,-8.44101,0.0554567,-8.45244e-05,,,,,
Serial Number:,947R055,95UB122GC0A947R055,,,,,Pixel to Wavelength Coefficients:,1795.87,-0.92014,-0.00023961,,,,,
APP Version:,2.16.7,,,,,,,,,,,,,
TIVA Version:,2.4.4,,,,,,***Lamp Usage * **,,,,,,,,
UUID:,de:67:c:88:67:2c:2d:21,,,,,,Total Time(HH:MM:SS):,14min 2sec ,,,,,,,
Main Board Version:,D,,,,,,***Device/Error Status***,,,,,,,,
Detector Board Version:,B,,,,,,Device Status:,0x00000031,,,,,,
,,,,,,,Error status:,0x00000000,Error Code:,0x00000000000000000000000000000000,,,,,
,,,,,,,,,Error Details:,Not Found,,,,,
***Scan Data***,,,,,,,,,,,,,,,
Wavelength (nm),Absorbance (AU),Reference Signal (unitless),Sample Signal (unitless)
901.841,1.36187,99968.0,4345
905.754,1.35282,108993.0,4837
909.663,1.34804,118185.0,5303
913.568,1.35927,129285.0,5653
917.469,1.37802,143347.0,6003
921.365,1.35903,160437.0,7019
925.257,1.39294,180387.0,7299
929.144,1.37916,201426.0,8413
933.028,1.39299,220694.0,8929
936.906,1.36963,237501.0,10140
942.072,1.363754,256956.0,11120
945.94,1.36531,270636.0,11670
949.805,1.35413,283621.0,12549
953.665,1.35825,296982.0,13016
957.521,1.35799,310733.0,13627
961.373,1.35086,324587.0,14470
965.22,1.34623,339205.0,15284
969.063,1.35005,353669.0,15796
972.902,1.34906,368253.0,16485
976.736,1.34573,382531.0,17256
981.842,1.34709,399901.0,17983
985.666,1.34563,411528.0,18568
989.486,1.341696,422199.0,19223
993.302,1.35255,431172.0,19147
997.113,1.35707,438051.0,19251
1000.92,1.35785,444216.0,19487
1004.72,1.35212,449307.0,19972
1008.52,1.34649,453601.0,20426
1012.32,1.34692,456801.0,20550
1016.11,1.35107,459312.0,20466
1021.15,1.34437,461643.0,20890
1024.93,1.35049,463069.0,20661
1028.71,1.3519,463868.0,20630
1032.48,1.35312,464326.0,20592
1036.24,1.36134,466001.0,20279
1040.01,1.3513,466870.0,20792
1043.77,1.36557,467033.0,20127
1047.52,1.36137,467045.0,20323
1051.27,1.36059,467467.0,20378
1055.01,1.35995,467627.0,20415
1060,1.359199,468351.0,20482
1063.74,1.36505,469050.0,20238
1067.47,1.34828,469880.0,21072
1071.19,1.36112,471228.0,20517
1074.92,1.3651,472558.0,20387
1078.63,1.365696,474087.0,20425
1082.35,1.36466,476569.0,20581
1086.06,1.3655,479445.0,20665
1089.76,1.36493,481756.0,20792
1093.46,1.35839,485147.0,21256
1098.39,1.371102,489755.0,20839
1102.08,1.36297,493535.0,21397
1105.77,1.36366,497426.0,21531
1109.45,1.36332,501308.0,21716
1113.13,1.36964,505725.0,21591
1116.8,1.37996,509421.0,21238
1120.47,1.37294,513217.0,21745
1124.13,1.36832,517470.0,22160
1127.79,1.37568,521690.0,21965
1131.45,1.37284,526099.0,22296
1136.32,1.36524,531329.0,22915
1139.96,1.38059,535549.0,22295
1143.61,1.3874,539808.0,22123
1147.24,1.38131,543900.0,22605
1150.88,1.39367,547908.0,22133
1154.5,1.393729,552170.0,22302
1158.13,1.39679,556773.0,22330
1161.75,1.40683,561098.0,21989
1165.36,1.40955,565898.0,22039
1168.98,1.41865,571300.0,21788
1172.58,1.41605,576602.0,22122
1177.39,1.427,584320.0,21860
1180.98,1.422648,589396.0,22272
1184.58,1.43679,596143.0,21805
1188.16,1.44983,602955.0,21402
1191.75,1.45574,609704.0,21349
1195.33,1.46956,617215.0,20935
1198.9,1.47789,624471.0,20779
1202.48,1.50245,632472.0,19888
1206.04,1.52023,640381.0,19329
1209.61,1.52813,648161.0,19211
1214.35,1.54442,659999.0,18842
1217.9,1.54246,668609.0,19174
1221.45,1.51833,677405.0,20536
1224.99,1.50931,686281.0,21242
1228.53,1.48036,695317.0,23005
1232.07,1.46527,704063.0,24118
1235.6,1.46205,713007.0,24606
1239.13,1.44923,721330.0,25639
1242.65,1.4343,730030.0,26856
1246.17,1.43456,737591.0,27118
1250.85,1.43123,746809.0,27668
1254.36,1.42766,753336.0,28140
1257.86,1.4266,759907.0,28455
1261.36,1.42113,766538.0,29067
1264.86,1.41987,774802.0,29466
1268.35,1.41886,784025.0,29886
1271.83,1.42067,794336.0,30153
1275.32,1.41591,804198.0,30864
1278.79,1.41848,813836.0,31050
1282.27,1.41636,823595.0,31576
1286.89,1.419,834533.0,31801
1290.36,1.419445,842581.0,32075
1293.81,1.4175,849301.0,32476
1297.27,1.41604,856026.0,32843
1300.72,1.41979,862498.0,32807
1304.17,1.42332,868068.0,32752
1307.61,1.417658,872869.0,33365
1311.05,1.42224,877616.0,33194
1314.48,1.41843,881872.0,33649
1317.91,1.42145,885520.0,33554
1322.47,1.4227,888917.0,33586
1325.89,1.42004,891687.0,33898
1329.31,1.42409,894001.0,33670
1332.72,1.42671,895438.0,33522
1336.12,1.41944,896641.0,34133
1339.52,1.42185,897974.0,33995
1342.92,1.4221,898777.0,34006
1346.31,1.42953,898783.0,33429
1349.7,1.42281,898350.0,33934
1353.09,1.42816,896784.0,33460
1357.59,1.42559,895293.0,33603
1360.97,1.44176,892755.0,32283
1364.34,1.43696,890430.0,32557
1367.7,1.43926,888504.0,32315
1371.06,1.44904,885825.0,31500
1374.42,1.45005,881046.0,31257
1377.77,1.465057,874030.0,29955
1381.12,1.47021,865751.0,29321
1384.47,1.4899,857799.0,27764
1387.81,1.50168,851759.0,26831
1392.25,1.52071,846500.0,25522
1395.58,1.52618,843622.0,25117
1398.91,1.5124,841228.0,25853
1402.23,1.510097,838489.0,25906
1405.55,1.5052,836065.0,26124
1408.86,1.512268,834396.0,25651
1412.17,1.5264,832187.0,24764
1415.47,1.52368,830123.0,24858
1418.77,1.53468,828244.0,24181
1422.07,1.53407,827314.0,24188
1426.45,1.53557,826435.0,24079
1429.74,1.525363,825475.0,24623
1433.02,1.52214,824938.0,24790
1436.29,1.528961,823959.0,24375
1439.57,1.51619,823822.0,25098
1442.83,1.51279,823184.0,25276
1446.1,1.51169,821953.0,25302
1449.36,1.50731,821135.0,25533
1452.61,1.50703,819413.0,25496
1455.86,1.49838,817492.0,25948
1459.11,1.50036,814862.0,25747
1463.43,1.49297,811075.0,26067
1466.67,1.49487,807671.0,25844
1469.9,1.495397,803699.0,25686
1473.13,1.49478,799396.0,25585
1476.35,1.4864,795129.0,25944
1479.57,1.48594,790127.0,25808
1482.78,1.48576,784937.0,25649
1486,1.48795,779544.0,25345
1489.2,1.47989,773733.0,25627
1492.4,1.47927,767463.0,25456
1496.67,1.48113,758614.0,25055
1499.86,1.48543,751802.0,24585
1503.04,1.48391,744297.0,24425
1506.23,1.48573,735980.0,24051
1509.41,1.48171,728040.0,24013
1512.58,1.48165,719703.0,23741
1515.75,1.48738,710982.0,23146
1518.92,1.48698,702409.0,22888
1522.08,1.47888,693280.0,23016
1525.24,1.4855,683935.0,22362
1529.44,1.48906,671492.0,21776
1532.59,1.48005,661352.0,21897
1535.73,1.48328,650841.0,21389
1538.87,1.50497,640156.0,20013
1542,1.4873,629036.0,20482
1545.13,1.486431,617445.0,20145
1548.26,1.49156,605527.0,19524
1551.38,1.4886,594133.0,19288
1554.49,1.492959,582894.0,18734
1557.61,1.48847,571271.0,18551
1561.75,1.48215,555940.0,18318
1564.85,1.48468,544812.0,17847
1567.95,1.482184,533402.0,17574
1571.05,1.4794,521915.0,17306
1574.14,1.48092,510788.0,16878
1577.22,1.47873,499607.0,16592
1580.3,1.48148,487992.0,16104
1583.38,1.48965,476265.0,15424
1586.45,1.48346,464618.0,15263
1589.52,1.47522,452782.0,15159
1593.6,1.48996,436897.0,14139
1596.66,1.48174,425551.0,14035
1599.71,1.490777,414191.0,13379
1602.76,1.49048,402799.0,13020
1605.81,1.48808,391352.0,12720
1608.85,1.481167,380811.0,12576
1611.89,1.494133,370076.0,11862
1614.92,1.491451,359798.0,11604
1617.95,1.48415,349165.0,11452
1620.97,1.49269,338717.0,10893
1624.99,1.49016,325435.0,10527
1628.01,1.48325,315463.0,10368
1631.02,1.49388,305570.0,9800
1634.02,1.49459,295762.0,9470
1637.02,1.4668,286306.0,9773
1640.02,1.49806,276696.0,8789
1643.01,1.51249,267004.0,8204
1646,1.51074,257531.0,7945
1648.98,1.51212,247817.0,7621
1651.96,1.49539,238547.0,7624
1655.93,1.49089,225092.0,7269
1658.89,1.50917,214425.0,6639
1661.86,1.50701,202241.0,6293
1664.82,1.50224,188046.0,5916
1667.78,1.4781,171566.0,5706
1670.73,1.47348,154101.0,5180
1673.67,1.46459,134892.0,4628
1676.62,1.47658,115325.0,3849
1679.56,1.37842,97255.0,4069
1682.49,1.43059,81017.0,3006
1686.4,1.4682,63571.0,2163
1689.32,1.47265,53566.0,1804
1692.24,1.41865,45493.0,1735
1695.16,1.57394,39217.0,1046
1698.07,1.76737,33537.0,573
1700.97,1.73257,29118.0,539