Folder: Dorgan_Laubach_Research/Data/LLDPE (part 4)

File: LLDPE7_Column 1_20211230_113555.csv
***Scan Config Information***,,,,,,,***Reference Scan Information***,,,,,,,,
Scan Config Name:,Column 1,,,,,,Scan Config Name:,Built-in Factory Reference,,,,,,
Scan Config Type:,Slew,Num Section:,1,,,,Scan Config Type:,Slew,Num Section:,1,,,,,
Section Config Type:,Column,,,,,,Section Config Type:,Column,,,,,,,
Start Wavelength (nm):,900,,,,,,Start Wavelength (nm):,900.0,,,,,,
End Wavelength (nm):,1700,,,,,,End Wavelength (nm):,1700.0,,,,,,
Pattern Width (nm):,7.03,,,,,,Pattern Width (nm):,7.03,,,,,,,
Exposure (ms):,0.635,,,,,,Exposure (ms):,0.635,,,,,,,
Digital Resolution:,228,,,,,,Digital Resolution:,228,,,,,,,
Num Repeats:,6,,,,,,Num Repeats:,30,,,,,,,
PGA Gain:,64,,,,,,PGA Gain:,64,,,,,,
System Temp (C):,29.66,,,,,,System Temp (C):,24.17,,,,,,,
Humidity (%):,36.8,,,,,,Humidity (%):,30.0,,,,,,
Battery Capacity (%):,54,,,,,,Lamp Intensity:,2449,,,,,,,
Lamp Intensity:,2603,,,,,,Data Date-Time:,19/12/12T12:44:54,,,,,,
Data Date-Time:,18/1/1T7:15:13,,,,,,,,,,,,,,
Total Measurement Time in sec:,5.247,,,,,,,,,,,,,
***General Information***,,,,,,,***Calibration Coefficients***,,,,,,,,
Model Name:,NIR-S-G1,,,,,,Shift Vector Coefficients:,-8.44101,0.0554567,-8.45244e-05,,,,,
Serial Number:,947R055,95UB122GC0A947R055,,,,,Pixel to Wavelength Coefficients:,1795.87,-0.92014,-0.00023961,,,,,
APP Version:,2.16.7,,,,,,,,,,,,,
TIVA Version:,2.4.4,,,,,,***Lamp Usage * **,,,,,,,,
UUID:,de:67:c:88:67:2c:2d:21,,,,,,Total Time(HH:MM:SS):,13min 51sec ,,,,,,,
Main Board Version:,D,,,,,,***Device/Error Status***,,,,,,,,
Detector Board Version:,B,,,,,,Device Status:,0x00000031,,,,,,
,,,,,,,Error status:,0x00000000,Error Code:,0x00000000000000000000000000000000,,,,,
,,,,,,,,,Error Details:,Not Found,,,,,
***Scan Data***,,,,,,,,,,,,,,,
Wavelength (nm),Absorbance (AU),Reference Signal (unitless),Sample Signal (unitless)
901.841,1.54243,99968.0,2867
905.754,1.52685,108993.0,3240
909.663,1.51493,118185.0,3611
913.568,1.54171,129285.0,3714
917.469,1.518,143347.0,4349
921.365,1.53099,160437.0,4724
925.257,1.54423,180387.0,5152
929.144,1.52437,201426.0,6022
933.028,1.51211,220694.0,6787
936.906,1.51383,237501.0,7275
942.072,1.50116,256956.0,8104
945.94,1.50976,270636.0,8368
949.805,1.4779,283621.0,9437
953.665,1.48266,296982.0,9774
957.521,1.47841,310733.0,10327
961.373,1.47968,324587.0,10756
965.22,1.4598,339205.0,11767
969.063,1.47363,353669.0,11884
972.902,1.4692,368253.0,12501
976.736,1.46632,382531.0,13072
981.842,1.47804,399901.0,13302
985.666,1.48811,411528.0,13375
989.486,1.46994,422199.0,14308
993.302,1.48193,431172.0,14214
997.113,1.4542,438051.0,15393
1000.92,1.45883,444216.0,15444
1004.72,1.47819,449307.0,14940
1008.52,1.47232,453601.0,15288
1012.32,1.47512,456801.0,15297
1016.11,1.475095,459312.0,15382
1021.15,1.472967,461643.0,15536
1024.93,1.47439,463069.0,15533
1028.71,1.47617,463868.0,15496
1032.48,1.4786,464326.0,15425
1036.24,1.47985,466001.0,15436
1040.01,1.48838,466870.0,15164
1043.77,1.47949,467033.0,15483
1047.52,1.47435,467045.0,15668
1051.27,1.48108,467467.0,15441
1055.01,1.48286,467627.0,15383
1060,1.485086,468351.0,15328
1063.74,1.49548,469050.0,14988
1067.47,1.48435,469880.0,15404
1071.19,1.48749,471228.0,15337
1074.92,1.48826,472558.0,15353
1078.63,1.47745,474087.0,15791
1082.35,1.48472,476569.0,15610
1086.06,1.4767,479445.0,15997
1089.76,1.48651,481756.0,15715
1093.46,1.48306,485147.0,15952
1098.39,1.4873,489755.0,15947
1102.08,1.49151,493535.0,15915
1105.77,1.49169,497426.0,16034
1109.45,1.4918,501308.0,16155
1113.13,1.489097,505725.0,16399
1116.8,1.49537,509421.0,16282
1120.47,1.4966,513217.0,16357
1124.13,1.49606,517470.0,16513
1127.79,1.49311,521690.0,16761
1131.45,1.49853,526099.0,16693
1136.32,1.49049,531329.0,17174
1139.96,1.49388,535549.0,17176
1143.61,1.50128,539808.0,17020
1147.24,1.50255,543900.0,17099
1150.88,1.51348,547908.0,16797
1154.5,1.51793,552170.0,16755
1158.13,1.52307,556773.0,16696
1161.75,1.52445,561098.0,16772
1165.36,1.5249,565898.0,16898
1168.98,1.536,571300.0,16629
1172.58,1.53209,576602.0,16935
1177.39,1.5456,584320.0,16636
1180.98,1.55403,589396.0,16458
1184.58,1.57251,596143.0,15953
1188.16,1.56943,602955.0,16250
1191.75,1.57282,609704.0,16304
1195.33,1.59145,617215.0,15812
1198.9,1.61023,624471.0,15321
1202.48,1.62304,632472.0,15066
1206.04,1.627519,640381.0,15098
1209.61,1.640864,648161.0,14819
1214.35,1.6585,659999.0,14489
1217.9,1.64798,668609.0,15038
1221.45,1.63534,677405.0,15686
1224.99,1.61957,686281.0,16479
1228.53,1.60494,695317.0,17268
1232.07,1.57412,704063.0,18771
1235.6,1.5761,713007.0,18923
1239.13,1.56252,721330.0,19752
1242.65,1.557259,730030.0,20234
1246.17,1.55439,737591.0,20579
1250.85,1.55093,746809.0,21003
1254.36,1.55242,753336.0,21114
1257.86,1.53576,759907.0,22131
1261.36,1.53144,766538.0,22547
1264.86,1.54001,774802.0,22345
1268.35,1.54309,784025.0,22451
1271.83,1.53879,794336.0,22973
1275.32,1.53356,804198.0,23540
1278.79,1.53952,813836.0,23497
1282.27,1.53489,823595.0,24034
1286.89,1.53432,834533.0,24385
1290.36,1.53561,842581.0,24547
1293.81,1.53284,849301.0,24901
1297.27,1.533246,856026.0,25075
1300.72,1.52321,862498.0,25855
1304.17,1.53391,868068.0,25389
1307.61,1.53574,872869.0,25422
1311.05,1.52969,877616.0,25919
1314.48,1.53628,881872.0,25652
1317.91,1.53214,885520.0,26005
1322.47,1.53785,888917.0,25764
1325.89,1.537836,891687.0,25845
1329.31,1.5365,894001.0,25992
1332.72,1.53203,895438.0,26303
1336.12,1.53334,896641.0,26259
1339.52,1.54392,897974.0,25665
1342.92,1.53746,898777.0,26073
1346.31,1.53821,898783.0,26028
1349.7,1.54353,898350.0,25699
1353.09,1.53934,896784.0,25903
1357.59,1.54001,895293.0,25820
1360.97,1.54494,892755.0,25456
1364.34,1.54892,890430.0,25158
1367.7,1.55213,888504.0,24919
1371.06,1.56526,885825.0,24104
1374.42,1.56271,881046.0,24115
1377.77,1.5667,874030.0,23704
1381.12,1.58001,865751.0,22771
1384.47,1.58762,857799.0,22170
1387.81,1.59883,851759.0,21453
1392.25,1.62007,846500.0,20303
1395.58,1.625422,843622.0,19986
1398.91,1.61991,841228.0,20184
1402.23,1.615061,838489.0,20344
1405.55,1.6086,836065.0,20589
1408.86,1.62486,834396.0,19793
1412.17,1.62331,832187.0,19811
1415.47,1.62775,830123.0,19561
1418.77,1.63972,828244.0,18986
1422.07,1.62539,827314.0,19601
1426.45,1.63402,826435.0,19195
1429.74,1.62723,825475.0,19475
1433.02,1.63053,824938.0,19315
1436.29,1.63892,823959.0,18923
1439.57,1.61864,823822.0,19824
1442.83,1.60989,823184.0,20212
1446.1,1.616103,821953.0,19895
1449.36,1.61033,821135.0,20141
1452.61,1.60539,819413.0,20329
1455.86,1.605844,817492.0,20260
1459.11,1.591624,814862.0,20867
1463.43,1.5982,811075.0,20458
1466.67,1.586652,807671.0,20921
1469.9,1.59158,803699.0,20583
1473.13,1.59194,799396.0,20456
1476.35,1.59038,795129.0,20420
1479.57,1.58941,790127.0,20337
1482.78,1.590797,784937.0,20139
1486,1.58979,779544.0,20047
1489.2,1.58092,773733.0,20308
1492.4,1.57921,767463.0,20223
1496.67,1.58737,758614.0,19618
1499.86,1.57957,751802.0,19794
1503.04,1.57324,744297.0,19884
1506.23,1.57743,735980.0,19473
1509.41,1.58187,728040.0,19067
1512.58,1.57074,719703.0,19338
1515.75,1.582089,710982.0,18611
1518.92,1.58194,702409.0,18393
1522.08,1.57848,693280.0,18299
1525.24,1.57835,683935.0,18058
1529.44,1.58383,671492.0,17507
1532.59,1.57901,661352.0,17435
1535.73,1.59042,650841.0,16713
1538.87,1.58817,640156.0,16524
1542,1.58983,629036.0,16175
1545.13,1.5901,617445.0,15867
1548.26,1.57905,605527.0,15962
1551.38,1.56676,594133.0,16111
1554.49,1.574,582894.0,15545
1557.61,1.58145,571271.0,14976
1561.75,1.581628,555940.0,14568
1564.85,1.57303,544812.0,14562
1567.95,1.56707,533402.0,14454
1571.05,1.56666,521915.0,14156
1574.14,1.57339,510788.0,13641
1577.22,1.57681,499607.0,13238
1580.3,1.57071,487992.0,13113
1583.38,1.57952,476265.0,12541
1586.45,1.56845,464618.0,12550
1589.52,1.55898,452782.0,12500
1593.6,1.56232,436897.0,11969
1596.66,1.56199,425551.0,11667
1599.71,1.5584,414191.0,11450
1602.76,1.57843,402799.0,10633
1605.81,1.5901,391352.0,10057
1608.85,1.57772,380811.0,10069
1611.89,1.58647,370076.0,9590
1614.92,1.58118,359798.0,9438
1617.95,1.58227,349165.0,9136
1620.97,1.57767,338717.0,8957
1624.99,1.559914,325435.0,8965
1628.01,1.56541,315463.0,8581
1631.02,1.60049,305570.0,7667
1634.02,1.60869,295762.0,7282
1637.02,1.56251,286306.0,7840
1640.02,1.58178,276696.0,7248
1643.01,1.60915,267004.0,6567
1646,1.5589,257531.0,7111
1648.98,1.62013,247817.0,5943
1651.96,1.57658,238547.0,6324
1655.93,1.56292,225092.0,6158
1658.89,1.59083,214425.0,5501
1661.86,1.57719,202241.0,5354
1664.82,1.58656,188046.0,4872
1667.78,1.6085,171566.0,4226
1670.73,1.53886,154101.0,4456
1673.67,1.52232,134892.0,4052
1676.62,1.47624,115325.0,3852
1679.56,1.50219,97255.0,3060
1682.49,1.53438,81017.0,2367
1686.4,1.49469,63571.0,2035
1689.32,1.56187,53566.0,1469
1692.24,1.59876,45493.0,1146
1695.16,1.63253,39217.0,914
1698.07,1.55471,33537.0,935
1700.97,1.70449,29118.0,575

File: LLDPE8_Column 1_20211230_113610.csv
***Scan Config Information***,,,,,,,***Reference Scan Information***,,,,,,,,
Scan Config Name:,Column 1,,,,,,Scan Config Name:,Built-in Factory Reference,,,,,,
Scan Config Type:,Slew,Num Section:,1,,,,Scan Config Type:,Slew,Num Section:,1,,,,,
Section Config Type:,Column,,,,,,Section Config Type:,Column,,,,,,,
Start Wavelength (nm):,900,,,,,,Start Wavelength (nm):,900.0,,,,,,
End Wavelength (nm):,1700,,,,,,End Wavelength (nm):,1700.0,,,,,,
Pattern Width (nm):,7.03,,,,,,Pattern Width (nm):,7.03,,,,,,,
Exposure (ms):,0.635,,,,,,Exposure (ms):,0.635,,,,,,,
Digital Resolution:,228,,,,,,Digital Resolution:,228,,,,,,,
Num Repeats:,6,,,,,,Num Repeats:,30,,,,,,,
PGA Gain:,64,,,,,,PGA Gain:,64,,,,,,
System Temp (C):,29.8,,,,,,System Temp (C):,24.17,,,,,,,
Humidity (%):,36.7,,,,,,Humidity (%):,30.0,,,,,,
Battery Capacity (%):,54,,,,,,Lamp Intensity:,2449,,,,,,,
Lamp Intensity:,2606,,,,,,Data Date-Time:,19/12/12T12:44:54,,,,,,
Data Date-Time:,18/1/1T7:15:28,,,,,,,,,,,,,,
Total Measurement Time in sec:,5.152,,,,,,,,,,,,,
***General Information***,,,,,,,***Calibration Coefficients***,,,,,,,,
Model Name:,NIR-S-G1,,,,,,Shift Vector Coefficients:,-8.44101,0.0554567,-8.45244e-05,,,,,
Serial Number:,947R055,95UB122GC0A947R055,,,,,Pixel to Wavelength Coefficients:,1795.87,-0.92014,-0.00023961,,,,,
APP Version:,2.16.7,,,,,,,,,,,,,
TIVA Version:,2.4.4,,,,,,***Lamp Usage * **,,,,,,,,
UUID:,de:67:c:88:67:2c:2d:21,,,,,,Total Time(HH:MM:SS):,13min 54sec ,,,,,,,
Main Board Version:,D,,,,,,***Device/Error Status***,,,,,,,,
Detector Board Version:,B,,,,,,Device Status:,0x00000031,,,,,,
,,,,,,,Error status:,0x00000000,Error Code:,0x00000000000000000000000000000000,,,,,
,,,,,,,,,Error Details:,Not Found,,,,,
***Scan Data***,,,,,,,,,,,,,,,
Wavelength (nm),Absorbance (AU),Reference Signal (unitless),Sample Signal (unitless)
901.841,1.51216,99968.0,3074
905.754,1.49958,108993.0,3450
909.663,1.51711,118185.0,3593
913.568,1.50334,129285.0,4057
917.469,1.53604,143347.0,4172
921.365,1.53636,160437.0,4666
925.257,1.53168,180387.0,5303
929.144,1.52315,201426.0,6039
933.028,1.53028,220694.0,6509
936.906,1.53959,237501.0,6856
942.072,1.54168,256956.0,7382
945.94,1.506455,270636.0,8432
949.805,1.51527,283621.0,8659
953.665,1.520519,296982.0,8958
957.521,1.52251,310733.0,9330
961.373,1.500904,324587.0,10243
965.22,1.51864,339205.0,10276
969.063,1.51707,353669.0,10753
972.902,1.51012,368253.0,11377
976.736,1.50866,382531.0,11858
981.842,1.51677,399901.0,12167
985.666,1.497692,411528.0,13083
989.486,1.5035,422199.0,13244
993.302,1.51214,431172.0,13259
997.113,1.53016,438051.0,12923
1000.92,1.507149,444216.0,13818
1004.72,1.51301,449307.0,13789
1008.52,1.50561,453601.0,14160
1012.32,1.51035,456801.0,14105
1016.11,1.51206,459312.0,14127
1021.15,1.51055,461643.0,14248
1024.93,1.5206,463069.0,13965
1028.71,1.50231,463868.0,14591
1032.48,1.51334,464326.0,14239
1036.24,1.52378,466001.0,13951
1040.01,1.51816,466870.0,14159
1043.77,1.51706,467033.0,14200
1047.52,1.511902,467045.0,14370
1051.27,1.51384,467467.0,14319
1055.01,1.5138,467627.0,14325
1060,1.51527,468351.0,14299
1063.74,1.51534,469050.0,14318
1067.47,1.52394,469880.0,14062
1071.19,1.51493,471228.0,14398
1074.92,1.52253,472558.0,14188
1078.63,1.51374,474087.0,14525
1082.35,1.50282,476569.0,14973
1086.06,1.5244,479445.0,14333
1089.76,1.52619,481756.0,14343
1093.46,1.51588,485147.0,14791
1098.39,1.52756,489755.0,14535
1102.08,1.52736,493535.0,14654
1105.77,1.53232,497426.0,14602
1109.45,1.53196,501308.0,14728
1113.13,1.51414,505725.0,15480
1116.8,1.53755,509421.0,14775
1120.47,1.53178,513217.0,15084
1124.13,1.53988,517470.0,14928
1127.79,1.52865,521690.0,15444
1131.45,1.53595,526099.0,15315
1136.32,1.53394,531329.0,15539
1139.96,1.53401,535549.0,15660
1143.61,1.54264,539808.0,15474
1147.24,1.54984,543900.0,15335
1150.88,1.53986,547908.0,15807
1154.5,1.54667,552170.0,15682
1158.13,1.5579,556773.0,15409
1161.75,1.56651,561098.0,15224
1165.36,1.56984,565898.0,15237
1168.98,1.57631,571300.0,15155
1172.58,1.571442,576602.0,15468
1177.39,1.58618,584320.0,15152
1180.98,1.59155,589396.0,15096
1184.58,1.60004,596143.0,14973
1188.16,1.60474,602955.0,14981
1191.75,1.6186,609704.0,14673
1195.33,1.6271,617215.0,14566
1198.9,1.644541,624471.0,14157
1202.48,1.64159,632472.0,14436
1206.04,1.64992,640381.0,14339
1209.61,1.6793,648161.0,13564
1214.35,1.67856,659999.0,13835
1217.9,1.67942,668609.0,13988
1221.45,1.66167,677405.0,14763
1224.99,1.64174,686281.0,15659
1228.53,1.64076,695317.0,15901
1232.07,1.62014,704063.0,16884
1235.6,1.60919,713007.0,17535
1239.13,1.60301,721330.0,17994
1242.65,1.59073,730030.0,18733
1246.17,1.59053,737591.0,18936
1250.85,1.58671,746809.0,19342
1254.36,1.5779,753336.0,19911
1257.86,1.58036,759907.0,19971
1261.36,1.57665,766538.0,20318
1264.86,1.57345,774802.0,20689
1268.35,1.58249,784025.0,20504
1271.83,1.57953,794336.0,20916
1275.32,1.5769,804198.0,21304
1278.79,1.57618,813836.0,21595
1282.27,1.57841,823595.0,21742
1286.89,1.5775,834533.0,22077
1290.36,1.57041,842581.0,22657
1293.81,1.57572,849301.0,22560
1297.27,1.57562,856026.0,22744
1300.72,1.57403,862498.0,23000
1304.17,1.57878,868068.0,22897
1307.61,1.58015,872869.0,22951
1311.05,1.57784,877616.0,23199
1314.48,1.575485,881872.0,23438
1317.91,1.57958,885520.0,23314
1322.47,1.579367,888917.0,23415
1325.89,1.583043,891687.0,23290
1329.31,1.58018,894001.0,23505
1332.72,1.58509,895438.0,23278
1336.12,1.58489,896641.0,23320
1339.52,1.57815,897974.0,23720
1342.92,1.58223,898777.0,23519
1346.31,1.579787,898783.0,23652
1349.7,1.58112,898350.0,23568
1353.09,1.58582,896784.0,23274
1357.59,1.58403,895293.0,23331
1360.97,1.582464,892755.0,23349
1364.34,1.60108,890430.0,22311
1367.7,1.5954,888504.0,22556
1371.06,1.60339,885825.0,22078
1374.42,1.60888,881046.0,21683
1377.77,1.60559,874030.0,21674
1381.12,1.61743,865751.0,20891
1384.47,1.63023,857799.0,20098
1387.81,1.64068,851759.0,19482
1392.25,1.65959,846500.0,18537
1395.58,1.65389,843622.0,18718
1398.91,1.65767,841228.0,18503
1402.23,1.646691,838489.0,18915
1405.55,1.65872,836065.0,18345
1408.86,1.65251,834396.0,18572
1412.17,1.66178,832187.0,18132
1415.47,1.66048,830123.0,18141
1418.77,1.66749,828244.0,17810
1422.07,1.66489,827314.0,17897
1426.45,1.66516,826435.0,17867
1429.74,1.65675,825475.0,18195
1433.02,1.66889,824938.0,17682
1436.29,1.66179,823959.0,17952
1439.57,1.65996,823822.0,18025
1442.83,1.64563,823184.0,18615
1446.1,1.64573,821953.0,18583
1449.36,1.64274,821135.0,18693
1452.61,1.646519,819413.0,18492
1455.86,1.64447,817492.0,18536
1459.11,1.64185,814862.0,18588
1463.43,1.64198,811075.0,18496
1466.67,1.64138,807671.0,18444
1469.9,1.63137,803699.0,18781
1473.13,1.63991,799396.0,18317
1476.35,1.62818,795129.0,18718
1479.57,1.62581,790127.0,18702
1482.78,1.622297,784937.0,18730
1486,1.62996,779544.0,18276
1489.2,1.62719,773733.0,18256
1492.4,1.62731,767463.0,18103
1496.67,1.63527,758614.0,17569
1499.86,1.61799,751802.0,18118
1503.04,1.61484,744297.0,18068
1506.23,1.62505,735980.0,17451
1509.41,1.63153,728040.0,17007
1512.58,1.61132,719703.0,17613
1515.75,1.62707,710982.0,16780
1518.92,1.62795,702409.0,16544
1522.08,1.62509,693280.0,16437
1525.24,1.62805,683935.0,16105
1529.44,1.62488,671492.0,15928
1532.59,1.63255,661352.0,15413
1535.73,1.61636,650841.0,15744
1538.87,1.64119,640156.0,14625
1542,1.61789,629036.0,15163
1545.13,1.63025,617445.0,14466
1548.26,1.623952,605527.0,14394
1551.38,1.6184,594133.0,14305
1554.49,1.61702,582894.0,14079
1557.61,1.60526,571271.0,14177
1561.75,1.6144,555940.0,13509
1564.85,1.615969,544812.0,13191
1567.95,1.62713,533402.0,12587
1571.05,1.60677,521915.0,12907
1574.14,1.61668,510788.0,12347
1577.22,1.61309,499607.0,12177
1580.3,1.61978,487992.0,11712
1583.38,1.60977,476265.0,11697
1586.45,1.61575,464618.0,11255
1589.52,1.59211,452782.0,11582
1593.6,1.61561,436897.0,10587
1596.66,1.61397,425551.0,10351
1599.71,1.613697,414191.0,10081
1602.76,1.59095,402799.0,10331
1605.81,1.60392,391352.0,9742
1608.85,1.59542,380811.0,9667
1611.89,1.60877,370076.0,9110
1614.92,1.59721,359798.0,9096
1617.95,1.62863,349165.0,8211
1620.97,1.59182,338717.0,8670
1624.99,1.59093,325435.0,8347
1628.01,1.5793,315463.0,8311
1631.02,1.60293,305570.0,7624
1634.02,1.59611,295762.0,7496
1637.02,1.59944,286306.0,7201
1640.02,1.60581,276696.0,6858
1643.01,1.58786,267004.0,6897
1646,1.6209,257531.0,6165
1648.98,1.57275,247817.0,6628
1651.96,1.61094,238547.0,5843
1655.93,1.59633,225092.0,5702
1658.89,1.60009,214425.0,5385
1661.86,1.58878,202241.0,5213
1664.82,1.57975,188046.0,4949
1667.78,1.61806,171566.0,4134
1670.73,1.55504,154101.0,4293
1673.67,1.55968,134892.0,3718
1676.62,1.54196,115325.0,3311
1679.56,1.536279,97255.0,2829
1682.49,1.49094,81017.0,2616
1686.4,1.53609,63571.0,1850
1689.32,1.50591,53566.0,1671
1692.24,1.43862,45493.0,1657
1695.16,1.69916,39217.0,784
1698.07,1.49492,33537.0,1073
1700.97,1.7583,29118.0,508