Folder: Dorgan_Laubach_Research/Data/LLDPE (part 3)

File: LLDPE5_Column 1_20211230_113527.csv
***Scan Config Information***,,,,,,,***Reference Scan Information***,,,,,,,,
Scan Config Name:,Column 1,,,,,,Scan Config Name:,Built-in Factory Reference,,,,,,
Scan Config Type:,Slew,Num Section:,1,,,,Scan Config Type:,Slew,Num Section:,1,,,,,
Section Config Type:,Column,,,,,,Section Config Type:,Column,,,,,,,
Start Wavelength (nm):,900,,,,,,Start Wavelength (nm):,900.0,,,,,,
End Wavelength (nm):,1700,,,,,,End Wavelength (nm):,1700.0,,,,,,
Pattern Width (nm):,7.03,,,,,,Pattern Width (nm):,7.03,,,,,,,
Exposure (ms):,0.635,,,,,,Exposure (ms):,0.635,,,,,,,
Digital Resolution:,228,,,,,,Digital Resolution:,228,,,,,,,
Num Repeats:,6,,,,,,Num Repeats:,30,,,,,,,
PGA Gain:,64,,,,,,PGA Gain:,64,,,,,,
System Temp (C):,29.4,,,,,,System Temp (C):,24.17,,,,,,,
Humidity (%):,36.82,,,,,,Humidity (%):,30.0,,,,,,
Battery Capacity (%):,55,,,,,,Lamp Intensity:,2449,,,,,,,
Lamp Intensity:,2598,,,,,,Data Date-Time:,19/12/12T12:44:54,,,,,,
Data Date-Time:,18/1/1T7:14:46,,,,,,,,,,,,,,
Total Measurement Time in sec:,4.204,,,,,,,,,,,,,
***General Information***,,,,,,,***Calibration Coefficients***,,,,,,,,
Model Name:,NIR-S-G1,,,,,,Shift Vector Coefficients:,-8.44101,0.0554567,-8.45244e-05,,,,,
Serial Number:,947R055,95UB122GC0A947R055,,,,,Pixel to Wavelength Coefficients:,1795.87,-0.92014,-0.00023961,,,,,
APP Version:,2.16.7,,,,,,,,,,,,,
TIVA Version:,2.4.4,,,,,,***Lamp Usage * **,,,,,,,,
UUID:,de:67:c:88:67:2c:2d:21,,,,,,Total Time(HH:MM:SS):,13min 47sec ,,,,,,,
Main Board Version:,D,,,,,,***Device/Error Status***,,,,,,,,
Detector Board Version:,B,,,,,,Device Status:,0x00000031,,,,,,
,,,,,,,Error status:,0x00000000,Error Code:,0x00000000000000000000000000000000,,,,,
,,,,,,,,,Error Details:,Not Found,,,,,
***Scan Data***,,,,,,,,,,,,,,,
Wavelength (nm),Absorbance (AU),Reference Signal (unitless),Sample Signal (unitless)
901.841,1.4384,99968.0,3643
905.754,1.41456,108993.0,4196
909.663,1.40065,118185.0,4698
913.568,1.42652,129285.0,4842
917.469,1.45707,143347.0,5004
921.365,1.40894,160437.0,6257
925.257,1.418743,180387.0,6878
929.144,1.43747,201426.0,7356
933.028,1.42513,220694.0,8292
936.906,1.439001,237501.0,8643
942.072,1.42457,256956.0,9667
945.94,1.40082,270636.0,10754
949.805,1.39885,283621.0,11321
953.665,1.39074,296982.0,12078
957.521,1.40383,310733.0,12262
961.373,1.3864,324587.0,13333
965.22,1.403779,339205.0,13387
969.063,1.38475,353669.0,14583
972.902,1.39886,368253.0,14699
976.736,1.38824,382531.0,15647
981.842,1.39526,399901.0,16095
985.666,1.40817,411528.0,16078
989.486,1.38961,422199.0,17215
993.302,1.39796,431172.0,17246
997.113,1.39355,438051.0,17700
1000.92,1.39756,444216.0,17784
1004.72,1.39877,449307.0,17938
1008.52,1.39943,453601.0,18082
1012.32,1.40349,456801.0,18040
1016.11,1.39821,459312.0,18361
1021.15,1.39975,461643.0,18389
1024.93,1.39267,463069.0,18749
1028.71,1.39674,463868.0,18606
1032.48,1.40596,464326.0,18233
1036.24,1.40089,466001.0,18514
1040.01,1.40355,466870.0,18435
1043.77,1.4121,467033.0,18082
1047.52,1.42028,467045.0,17745
1051.27,1.41226,467467.0,18092
1055.01,1.40404,467627.0,18444
1060,1.40512,468351.0,18427
1063.74,1.40306,469050.0,18542
1067.47,1.40376,469880.0,18545
1071.19,1.40641,471228.0,18485
1074.92,1.41238,472558.0,18284
1078.63,1.41144,474087.0,18383
1082.35,1.41145,476569.0,18479
1086.06,1.40959,479445.0,18670
1089.76,1.41601,481756.0,18485
1093.46,1.41936,485147.0,18472
1098.39,1.41951,489755.0,18641
1102.08,1.41782,493535.0,18858
1105.77,1.41818,497426.0,18991
1109.45,1.41244,501308.0,19394
1113.13,1.41462,505725.0,19467
1116.8,1.41954,509421.0,19388
1120.47,1.41652,513217.0,19669
1124.13,1.42139,517470.0,19611
1127.79,1.42487,521690.0,19613
1131.45,1.42467,526099.0,19788
1136.32,1.4249,531329.0,19974
1139.96,1.42085,535549.0,20321
1143.61,1.42299,539808.0,20382
1147.24,1.42905,543900.0,20252
1150.88,1.43746,547908.0,20010
1154.5,1.43873,552170.0,20107
1158.13,1.44179,556773.0,20132
1161.75,1.458826,561098.0,19508
1165.36,1.45566,565898.0,19819
1168.98,1.47252,571300.0,19246
1172.58,1.47218,576602.0,19440
1177.39,1.4795,584320.0,19371
1180.98,1.49316,589396.0,18934
1184.58,1.49343,596143.0,19139
1188.16,1.50327,602955.0,18924
1191.75,1.520679,609704.0,18384
1195.33,1.52562,617215.0,18400
1198.9,1.53542,624471.0,18201
1202.48,1.551305,632472.0,17772
1206.04,1.569448,640381.0,17258
1209.61,1.5943,648161.0,16496
1214.35,1.595684,659999.0,16744
1217.9,1.59391,668609.0,17032
1221.45,1.57802,677405.0,17899
1224.99,1.55252,686281.0,19230
1228.53,1.532787,695317.0,20389
1232.07,1.52593,704063.0,20974
1235.6,1.504711,713007.0,22304
1239.13,1.49781,721330.0,22926
1242.65,1.48977,730030.0,23636
1246.17,1.48808,737591.0,23974
1250.85,1.48093,746809.0,24676
1254.36,1.47936,753336.0,24982
1257.86,1.48131,759907.0,25087
1261.36,1.47103,766538.0,25912
1264.86,1.4788,774802.0,25727
1268.35,1.48167,784025.0,25862
1271.83,1.47563,794336.0,26569
1275.32,1.480514,804198.0,26598
1278.79,1.4757,813836.0,27217
1282.27,1.47534,823595.0,27566
1286.89,1.46995,834533.0,28281
1290.36,1.4677,842581.0,28702
1293.81,1.47426,849301.0,28497
1297.27,1.47013,856026.0,28997
1300.72,1.47566,862498.0,28847
1304.17,1.47653,868068.0,28975
1307.61,1.47349,872869.0,29340
1311.05,1.47209,877616.0,29595
1314.48,1.47809,881872.0,29330
1317.91,1.47959,885520.0,29350
1322.47,1.46811,888917.0,30252
1325.89,1.47648,891687.0,29767
1329.31,1.47978,894001.0,29618
1332.72,1.47886,895438.0,29729
1336.12,1.47287,896641.0,30182
1339.52,1.47842,897974.0,29843
1342.92,1.47441,898777.0,30147
1346.31,1.478536,898783.0,29862
1349.7,1.47952,898350.0,29780
1353.09,1.47557,896784.0,30000
1357.59,1.48529,895293.0,29287
1360.97,1.48156,892755.0,29456
1364.34,1.48563,890430.0,29105
1367.7,1.4885,888504.0,28851
1371.06,1.49484,885825.0,28347
1374.42,1.49506,881046.0,28180
1377.77,1.50608,874030.0,27255
1381.12,1.52042,865751.0,26120
1384.47,1.53252,857799.0,25169
1387.81,1.54516,851759.0,24275
1392.25,1.57193,846500.0,22683
1395.58,1.57314,843622.0,22543
1398.91,1.55472,841228.0,23453
1402.23,1.54805,838489.0,23738
1405.55,1.54665,836065.0,23746
1408.86,1.55538,834396.0,23227
1412.17,1.572969,832187.0,22246
1415.47,1.567,830123.0,22498
1418.77,1.58284,828244.0,21643
1422.07,1.573121,827314.0,22108
1426.45,1.56427,826435.0,22539
1429.74,1.57088,825475.0,22173
1433.02,1.56689,824938.0,22363
1436.29,1.56908,823959.0,22224
1439.57,1.5613,823822.0,22622
1442.83,1.5601,823184.0,22667
1446.1,1.562761,821953.0,22495
1449.36,1.5542,821135.0,22920
1452.61,1.55153,819413.0,23013
1455.86,1.54316,817492.0,23406
1459.11,1.54283,814862.0,23348
1463.43,1.54111,811075.0,23332
1466.67,1.535871,807671.0,23516
1469.9,1.53839,803699.0,23265
1473.13,1.52154,799396.0,24056
1476.35,1.52753,795129.0,23600
1479.57,1.5324,790127.0,23190
1482.78,1.52514,784937.0,23426
1486,1.52022,779544.0,23530
1489.2,1.52741,773733.0,22971
1492.4,1.5194,767463.0,23209
1496.67,1.52254,758614.0,22776
1499.86,1.51562,751802.0,22934
1503.04,1.51629,744297.0,22670
1506.23,1.51407,735980.0,22532
1509.41,1.52084,728040.0,21944
1512.58,1.51969,719703.0,21750
1515.75,1.51594,710982.0,21673
1518.92,1.52441,702409.0,20998
1522.08,1.52114,693280.0,20882
1525.24,1.5135,683935.0,20966
1529.44,1.53328,671492.0,19668
1532.59,1.52445,661352.0,19769
1535.73,1.524042,650841.0,19473
1538.87,1.52762,640156.0,18996
1542,1.5323,629036.0,18466
1545.13,1.52324,617445.0,18508
1548.26,1.51864,605527.0,18344
1551.38,1.52395,594133.0,17780
1554.49,1.50909,582894.0,18051
1557.61,1.51592,571271.0,17415
1561.75,1.523379,555940.0,16659
1564.85,1.51766,544812.0,16542
1567.95,1.50734,533402.0,16585
1571.05,1.51842,521915.0,15819
1574.14,1.51601,510788.0,15568
1577.22,1.52402,499607.0,14949
1580.3,1.50832,487992.0,15139
1583.38,1.525438,476265.0,14204
1586.45,1.52826,464618.0,13767
1589.52,1.51585,452782.0,13805
1593.6,1.52248,436897.0,13119
1596.66,1.51786,425551.0,12915
1599.71,1.50999,414191.0,12800
1602.76,1.53027,402799.0,11880
1605.81,1.5229,391352.0,11740
1608.85,1.52228,380811.0,11440
1611.89,1.5171,370076.0,11251
1614.92,1.51629,359798.0,10959
1617.95,1.525,349165.0,10424
1620.97,1.52836,338717.0,10034
1624.99,1.52,325435.0,9828
1628.01,1.53464,315463.0,9211
1631.02,1.52279,305570.0,9169
1634.02,1.54188,295762.0,8493
1637.02,1.52304,286306.0,8586
1640.02,1.53186,276696.0,8131
1643.01,1.538788,267004.0,7722
1646,1.52479,257531.0,7692
1648.98,1.5419,247817.0,7116
1651.96,1.53722,238547.0,6924
1655.93,1.5426,225092.0,6453
1658.89,1.55103,214425.0,6029
1661.86,1.5549,202241.0,5636
1664.82,1.524605,188046.0,5619
1667.78,1.56511,171566.0,4670
1670.73,1.573858,154101.0,4111
1673.67,1.52717,134892.0,4007
1676.62,1.50166,115325.0,3633
1679.56,1.43125,97255.0,3603
1682.49,1.47067,81017.0,2741
1686.4,1.54919,63571.0,1795
1689.32,1.531333,53566.0,1576
1692.24,1.4868,45493.0,1483
1695.16,1.55885,39217.0,1083
1698.07,1.58801,33537.0,866
1700.97,1.55999,29118.0,802

File: LLDPE6_Column 1_20211230_113542.csv
***Scan Config Information***,,,,,,,***Reference Scan Information***,,,,,,,,
Scan Config Name:,Column 1,,,,,,Scan Config Name:,Built-in Factory Reference,,,,,,
Scan Config Type:,Slew,Num Section:,1,,,,Scan Config Type:,Slew,Num Section:,1,,,,,
Section Config Type:,Column,,,,,,Section Config Type:,Column,,,,,,,
Start Wavelength (nm):,900,,,,,,Start Wavelength (nm):,900.0,,,,,,
End Wavelength (nm):,1700,,,,,,End Wavelength (nm):,1700.0,,,,,,
Pattern Width (nm):,7.03,,,,,,Pattern Width (nm):,7.03,,,,,,,
Exposure (ms):,0.635,,,,,,Exposure (ms):,0.635,,,,,,,
Digital Resolution:,228,,,,,,Digital Resolution:,228,,,,,,,
Num Repeats:,6,,,,,,Num Repeats:,30,,,,,,,
PGA Gain:,64,,,,,,PGA Gain:,64,,,,,,
System Temp (C):,29.53,,,,,,System Temp (C):,24.17,,,,,,,
Humidity (%):,36.82,,,,,,Humidity (%):,30.0,,,,,,
Battery Capacity (%):,54,,,,,,Lamp Intensity:,2449,,,,,,,
Lamp Intensity:,2601,,,,,,Data Date-Time:,19/12/12T12:44:54,,,,,,
Data Date-Time:,18/1/1T7:15:0,,,,,,,,,,,,,,
Total Measurement Time in sec:,5.253,,,,,,,,,,,,,
***General Information***,,,,,,,***Calibration Coefficients***,,,,,,,,
Model Name:,NIR-S-G1,,,,,,Shift Vector Coefficients:,-8.44101,0.0554567,-8.45244e-05,,,,,
Serial Number:,947R055,95UB122GC0A947R055,,,,,Pixel to Wavelength Coefficients:,1795.87,-0.92014,-0.00023961,,,,,
APP Version:,2.16.7,,,,,,,,,,,,,
TIVA Version:,2.4.4,,,,,,***Lamp Usage * **,,,,,,,,
UUID:,de:67:c:88:67:2c:2d:21,,,,,,Total Time(HH:MM:SS):,13min 49sec ,,,,,,,
Main Board Version:,D,,,,,,***Device/Error Status***,,,,,,,,
Detector Board Version:,B,,,,,,Device Status:,0x00000031,,,,,,
,,,,,,,Error status:,0x00000000,Error Code:,0x00000000000000000000000000000000,,,,,
,,,,,,,,,Error Details:,Not Found,,,,,
***Scan Data***,,,,,,,,,,,,,,,
Wavelength (nm),Absorbance (AU),Reference Signal (unitless),Sample Signal (unitless)
901.841,1.50404,99968.0,3132
905.754,1.51171,108993.0,3355
909.663,1.57191,118185.0,3167
913.568,1.490268,129285.0,4181
917.469,1.53273,143347.0,4204
921.365,1.53907,160437.0,4637
925.257,1.55819,180387.0,4989
929.144,1.54733,201426.0,5712
933.028,1.57213,220694.0,5911
936.906,1.56624,237501.0,6448
942.072,1.53237,256956.0,7542
945.94,1.54844,270636.0,7655
949.805,1.53919,283621.0,8195
953.665,1.54469,296982.0,8473
957.521,1.526011,310733.0,9255
961.373,1.53687,324587.0,9429
965.22,1.52674,339205.0,10086
969.063,1.52551,353669.0,10546
972.902,1.52172,368253.0,11077
976.736,1.51697,382531.0,11633
981.842,1.518235,399901.0,12126
985.666,1.52372,411528.0,12322
989.486,1.53325,422199.0,12367
993.302,1.531189,431172.0,12690
997.113,1.53486,438051.0,12784
1000.92,1.52433,444216.0,13282
1004.72,1.52006,449307.0,13567
1008.52,1.52782,453601.0,13454
1012.32,1.535549,456801.0,13310
1016.11,1.53682,459312.0,13344
1021.15,1.52654,461643.0,13733
1024.93,1.52835,463069.0,13718
1028.71,1.5198,463868.0,14015
1032.48,1.53495,464326.0,13548
1036.24,1.54012,466001.0,13436
1040.01,1.53832,466870.0,13517
1043.77,1.54008,467033.0,13467
1047.52,1.53816,467045.0,13527
1051.27,1.53932,467467.0,13503
1055.01,1.54936,467627.0,13199
1060,1.55214,468351.0,13135
1063.74,1.5404,469050.0,13515
1067.47,1.55356,469880.0,13135
1071.19,1.54245,471228.0,13514
1074.92,1.549104,472558.0,13346
1078.63,1.54251,474087.0,13594
1082.35,1.5385,476569.0,13792
1086.06,1.56211,479445.0,13141
1089.76,1.54642,481756.0,13690
1093.46,1.543046,485147.0,13894
1098.39,1.54519,489755.0,13957
1102.08,1.55287,493535.0,13818
1105.77,1.549547,497426.0,14034
1109.45,1.54742,501308.0,14213
1113.13,1.549247,505725.0,14278
1116.8,1.549016,509421.0,14390
1120.47,1.54699,513217.0,14565
1124.13,1.56212,517470.0,14183
1127.79,1.56543,521690.0,14190
1131.45,1.56319,526099.0,14384
1136.32,1.56143,531329.0,14586
1139.96,1.561098,535549.0,14713
1143.61,1.5675,539808.0,14613
1147.24,1.56198,543900.0,14912
1150.88,1.56561,547908.0,14897
1154.5,1.57231,552170.0,14783
1158.13,1.58138,556773.0,14598
1161.75,1.58995,561098.0,14424
1165.36,1.59236,565898.0,14467
1168.98,1.58878,571300.0,14726
1172.58,1.60384,576602.0,14356
1177.39,1.59463,584320.0,14860
1180.98,1.61262,589396.0,14381
1184.58,1.62758,596143.0,14053
1188.16,1.62177,602955.0,14405
1191.75,1.63458,609704.0,14143
1195.33,1.64375,617215.0,14018
1198.9,1.66747,624471.0,13429
1202.48,1.68066,632472.0,13194
1206.04,1.68524,640381.0,13219
1209.61,1.70454,648161.0,12798
1214.35,1.70045,659999.0,13155
1217.9,1.71143,668609.0,12994
1221.45,1.67125,677405.0,14441
1224.99,1.68202,686281.0,14272
1228.53,1.6628,695317.0,15114
1232.07,1.646515,704063.0,15889
1235.6,1.63469,713007.0,16535
1239.13,1.61629,721330.0,17452
1242.65,1.617828,730030.0,17600
1246.17,1.60187,737591.0,18448
1250.85,1.61242,746809.0,18230
1254.36,1.59734,753336.0,19039
1257.86,1.60737,759907.0,18767
1261.36,1.60019,766538.0,19246
1264.86,1.59483,774802.0,19695
1268.35,1.60929,784025.0,19277
1271.83,1.59586,794336.0,20144
1275.32,1.59691,804198.0,20345
1278.79,1.59465,813836.0,20696
1282.27,1.595339,823595.0,20911
1286.89,1.60128,834533.0,20901
1290.36,1.59599,842581.0,21361
1293.81,1.60653,849301.0,21015
1297.27,1.60234,856026.0,21387
1300.72,1.60183,862498.0,21574
1304.17,1.59904,868068.0,21853
1307.61,1.59835,872869.0,22009
1311.05,1.59637,877616.0,22230
1314.48,1.59405,881872.0,22457
1317.91,1.59324,885520.0,22592
1322.47,1.60693,888917.0,21975
1325.89,1.59551,891687.0,22631
1329.31,1.60035,894001.0,22438
1332.72,1.60235,895438.0,22371
1336.12,1.59713,896641.0,22672
1339.52,1.59188,897974.0,22982
1342.92,1.60022,898777.0,22565
1346.31,1.60354,898783.0,22393
1349.7,1.60121,898350.0,22503
1353.09,1.606785,896784.0,22177
1357.59,1.60257,895293.0,22356
1360.97,1.60194,892755.0,22325
1364.34,1.60702,890430.0,22008
1367.7,1.61262,888504.0,21679
1371.06,1.61732,885825.0,21381
1374.42,1.61881,881046.0,21193
1377.77,1.63047,874030.0,20467
1381.12,1.63275,865751.0,20167
1384.47,1.65603,857799.0,18939
1387.81,1.66614,851759.0,18373
1392.25,1.67173,846500.0,18026
1395.58,1.68627,843622.0,17373
1398.91,1.66128,841228.0,18350
1402.23,1.670232,838489.0,17917
1405.55,1.66377,836065.0,18133
1408.86,1.67551,834396.0,17614
1412.17,1.69239,832187.0,16898
1415.47,1.689256,830123.0,16978
1418.77,1.68253,828244.0,17204
1422.07,1.68986,827314.0,16897
1426.45,1.68254,826435.0,17166
1429.74,1.69054,825475.0,16833
1433.02,1.6685,824938.0,17698
1436.29,1.68423,823959.0,17048
1439.57,1.67917,823822.0,17245
1442.83,1.67675,823184.0,17328
1446.1,1.67333,821953.0,17439
1449.36,1.674065,821135.0,17392
1452.61,1.6623,819413.0,17832
1455.86,1.66858,817492.0,17535
1459.11,1.66755,814862.0,17520
1463.43,1.65767,811075.0,17840
1466.67,1.65591,807671.0,17837
1469.9,1.651029,803699.0,17950
1473.13,1.6447,799396.0,18116
1476.35,1.65234,795129.0,17705
1479.57,1.65213,790127.0,17602
1482.78,1.64512,784937.0,17771
1486,1.64198,779544.0,17777
1489.2,1.641158,773733.0,17678
1492.4,1.65125,767463.0,17132
1496.67,1.64095,758614.0,17341
1499.86,1.63939,751802.0,17247
1503.04,1.64592,744297.0,16820
1506.23,1.62837,735980.0,17318
1509.41,1.64662,728040.0,16426
1512.58,1.64276,719703.0,16383
1515.75,1.63927,710982.0,16315
1518.92,1.64402,702409.0,15943
1522.08,1.63959,693280.0,15897
1525.24,1.644487,683935.0,15507
1529.44,1.64238,671492.0,15299
1532.59,1.638589,661352.0,15200
1535.73,1.64439,650841.0,14760
1538.87,1.660934,640156.0,13975
1542,1.65128,629036.0,14041
1545.13,1.64621,617445.0,13944
1548.26,1.646365,605527.0,13670
1551.38,1.62819,594133.0,13986
1554.49,1.63988,582894.0,13357
1557.61,1.64912,571271.0,12815
1561.75,1.63102,555940.0,13002
1564.85,1.61696,544812.0,13161
1567.95,1.64005,533402.0,12218
1571.05,1.63024,521915.0,12228
1574.14,1.62374,510788.0,12148
1577.22,1.61689,499607.0,12071
1580.3,1.62685,487992.0,11523
1583.38,1.63847,476265.0,10949
1586.45,1.63299,464618.0,10817
1589.52,1.64036,452782.0,10364
1593.6,1.645754,436897.0,9877
1596.66,1.62317,425551.0,10134
1599.71,1.62139,414191.0,9904
1602.76,1.62313,402799.0,9593
1605.81,1.64977,391352.0,8766
1608.85,1.61848,380811.0,9167
1611.89,1.61328,370076.0,9016
1614.92,1.62669,359798.0,8499
1617.95,1.63214,349165.0,8145
1620.97,1.635244,338717.0,7845
1624.99,1.6392,325435.0,7469
1628.01,1.64089,315463.0,7212
1631.02,1.60464,305570.0,7594
1634.02,1.63361,295762.0,6876
1637.02,1.65832,286306.0,6288
1640.02,1.62942,276696.0,6495
1643.01,1.63057,267004.0,6251
1646,1.61788,257531.0,6208
1648.98,1.61794,247817.0,5973
1651.96,1.60584,238547.0,5912
1655.93,1.61034,225092.0,5521
1658.89,1.62945,214425.0,5033
1661.86,1.566376,202241.0,5489
1664.82,1.60495,188046.0,4670
1667.78,1.600458,171566.0,4305
1670.73,1.54435,154101.0,4400
1673.67,1.56414,134892.0,3680
1676.62,1.56986,115325.0,3105
1679.56,1.5203,97255.0,2935
1682.49,1.56556,81017.0,2203
1686.4,1.48021,63571.0,2104
1689.32,1.53856,53566.0,1550
1692.24,1.44443,45493.0,1635
1695.16,1.43996,39217.0,1424
1698.07,1.34569,33537.0,1513
1700.97,1.4694,29118.0,988