Folder: Dorgan_Laubach_Research/Data/LLDPE (part 8)

File: LLDPE15_Column 1_20211230_113755.csv
***Scan Config Information***,,,,,,,***Reference Scan Information***,,,,,,,,
Scan Config Name:,Column 1,,,,,,Scan Config Name:,Built-in Factory Reference,,,,,,
Scan Config Type:,Slew,Num Section:,1,,,,Scan Config Type:,Slew,Num Section:,1,,,,,
Section Config Type:,Column,,,,,,Section Config Type:,Column,,,,,,,
Start Wavelength (nm):,900,,,,,,Start Wavelength (nm):,900.0,,,,,,
End Wavelength (nm):,1700,,,,,,End Wavelength (nm):,1700.0,,,,,,
Pattern Width (nm):,7.03,,,,,,Pattern Width (nm):,7.03,,,,,,,
Exposure (ms):,0.635,,,,,,Exposure (ms):,0.635,,,,,,,
Digital Resolution:,228,,,,,,Digital Resolution:,228,,,,,,,
Num Repeats:,6,,,,,,Num Repeats:,30,,,,,,,
PGA Gain:,64,,,,,,PGA Gain:,64,,,,,,
System Temp (C):,30.79,,,,,,System Temp (C):,24.17,,,,,,,
Humidity (%):,36.42,,,,,,Humidity (%):,30.0,,,,,,
Battery Capacity (%):,53,,,,,,Lamp Intensity:,2449,,,,,,,
Lamp Intensity:,2624,,,,,,Data Date-Time:,19/12/12T12:44:54,,,,,,
Data Date-Time:,18/1/1T7:17:14,,,,,,,,,,,,,,
Total Measurement Time in sec:,4.345,,,,,,,,,,,,,
***General Information***,,,,,,,***Calibration Coefficients***,,,,,,,,
Model Name:,NIR-S-G1,,,,,,Shift Vector Coefficients:,-8.44101,0.0554567,-8.45244e-05,,,,,
Serial Number:,947R055,95UB122GC0A947R055,,,,,Pixel to Wavelength Coefficients:,1795.87,-0.92014,-0.00023961,,,,,
APP Version:,2.16.7,,,,,,,,,,,,,
TIVA Version:,2.4.4,,,,,,***Lamp Usage * **,,,,,,,,
UUID:,de:67:c:88:67:2c:2d:21,,,,,,Total Time(HH:MM:SS):,14min 9sec ,,,,,,,
Main Board Version:,D,,,,,,***Device/Error Status***,,,,,,,,
Detector Board Version:,B,,,,,,Device Status:,0x00000031,,,,,,
,,,,,,,Error status:,0x00000000,Error Code:,0x00000000000000000000000000000000,,,,,
,,,,,,,,,Error Details:,Not Found,,,,,
***Scan Data***,,,,,,,,,,,,,,,
Wavelength (nm),Absorbance (AU),Reference Signal (unitless),Sample Signal (unitless)
901.841,1.30499,99968.0,4953
905.754,1.29909,108993.0,5474
909.663,1.31623,118185.0,5706
913.568,1.346476,129285.0,5822
917.469,1.33757,143347.0,6589
921.365,1.3642,160437.0,6936
925.257,1.364612,180387.0,7791
929.144,1.35492,201426.0,8896
933.028,1.34111,220694.0,10062
936.906,1.33784,237501.0,10910
942.072,1.34863,256956.0,11514
945.94,1.34663,270636.0,12183
949.805,1.34,283621.0,12964
953.665,1.33219,296982.0,13821
957.521,1.328481,310733.0,14585
961.373,1.331607,324587.0,15126
965.22,1.32504,339205.0,16048
969.063,1.33772,353669.0,16251
972.902,1.33389,368253.0,17071
976.736,1.33261,382531.0,17785
981.842,1.32867,399901.0,18762
985.666,1.33069,411528.0,19218
989.486,1.333638,422199.0,19583
993.302,1.33038,431172.0,20150
997.113,1.33529,438051.0,20241
1000.92,1.33108,444216.0,20726
1004.72,1.33546,449307.0,20753
1008.52,1.33073,453601.0,21181
1012.32,1.33182,456801.0,21277
1016.11,1.33602,459312.0,21188
1021.15,1.3365,461643.0,21272
1024.93,1.32931,463069.0,21694
1028.71,1.342215,463868.0,21095
1032.48,1.32916,464326.0,21760
1036.24,1.34193,466001.0,21206
1040.01,1.33591,466870.0,21542
1043.77,1.34359,467033.0,21172
1047.52,1.34401,467045.0,21152
1051.27,1.34936,467467.0,20912
1055.01,1.347701,467627.0,20999
1060,1.34123,468351.0,21347
1063.74,1.34353,469050.0,21266
1067.47,1.34068,469880.0,21444
1071.19,1.34351,471228.0,21366
1074.92,1.34301,472558.0,21451
1078.63,1.34644,474087.0,21351
1082.35,1.342287,476569.0,21669
1086.06,1.33808,479445.0,22012
1089.76,1.35553,481756.0,21247
1093.46,1.34066,485147.0,22142
1098.39,1.34904,489755.0,21925
1102.08,1.346652,493535.0,22216
1105.77,1.34911,497426.0,22265
1109.45,1.35219,501308.0,22280
1113.13,1.35131,505725.0,22522
1116.8,1.35164,509421.0,22669
1120.47,1.35891,513217.0,22459
1124.13,1.352743,517470.0,22969
1127.79,1.357634,521690.0,22897
1131.45,1.35459,526099.0,23253
1136.32,1.35615,531329.0,23400
1139.96,1.354913,535549.0,23653
1143.61,1.36857,539808.0,23103
1147.24,1.37076,543900.0,23161
1150.88,1.36709,547908.0,23530
1154.5,1.37614,552170.0,23224
1158.13,1.38261,556773.0,23071
1161.75,1.39999,561098.0,22338
1165.36,1.39313,565898.0,22888
1168.98,1.396896,571300.0,22907
1172.58,1.410105,576602.0,22427
1177.39,1.40515,584320.0,22988
1180.98,1.4136,589396.0,22741
1184.58,1.41574,596143.0,22888
1188.16,1.43344,602955.0,22225
1191.75,1.43363,609704.0,22464
1195.33,1.457574,617215.0,21521
1198.9,1.47245,624471.0,21041
1202.48,1.48427,632472.0,20738
1206.04,1.50828,640381.0,19868
1209.61,1.51724,648161.0,19699
1214.35,1.52343,659999.0,19775
1217.9,1.52638,668609.0,19897
1221.45,1.50655,677405.0,21101
1224.99,1.48583,686281.0,22422
1228.53,1.46337,695317.0,23923
1232.07,1.44844,704063.0,25071
1235.6,1.44171,713007.0,25786
1239.13,1.42496,721330.0,27113
1242.65,1.42094,730030.0,27695
1246.17,1.42201,737591.0,27913
1250.85,1.41445,746809.0,28758
1254.36,1.41123,753336.0,29225
1257.86,1.40837,759907.0,29675
1261.36,1.40543,766538.0,30137
1264.86,1.403,774802.0,30633
1268.35,1.40171,784025.0,31090
1271.83,1.40291,794336.0,31412
1275.32,1.40266,804198.0,31820
1278.79,1.40084,813836.0,32337
1282.27,1.4043,823595.0,32465
1286.89,1.40134,834533.0,33121
1290.36,1.4064,842581.0,33053
1293.81,1.4021,849301.0,33648
1297.27,1.4073,856026.0,33511
1300.72,1.40556,862498.0,33900
1304.17,1.40619,868068.0,34069
1307.61,1.41033,872869.0,33933
1311.05,1.40282,877616.0,34712
1314.48,1.40376,881872.0,34805
1317.91,1.40486,885520.0,34861
1322.47,1.40534,888917.0,34956
1325.89,1.40795,891687.0,34855
1329.31,1.407208,894001.0,35005
1332.72,1.40602,895438.0,35157
1336.12,1.41251,896641.0,34682
1339.52,1.41335,897974.0,34667
1342.92,1.40863,898777.0,35077
1346.31,1.41349,898783.0,34687
1349.7,1.41107,898350.0,34864
1353.09,1.40966,896784.0,34916
1357.59,1.41837,895293.0,34166
1360.97,1.41999,892755.0,33942
1364.34,1.422576,890430.0,33653
1367.7,1.42695,888504.0,33244
1371.06,1.431302,885825.0,32813
1374.42,1.44179,881046.0,31857
1377.77,1.44711,874030.0,31219
1381.12,1.45899,865751.0,30089
1384.47,1.46395,857799.0,29474
1387.81,1.48435,851759.0,27923
1392.25,1.50425,846500.0,26508
1395.58,1.51059,843622.0,26035
1398.91,1.50756,841228.0,26143
1402.23,1.48842,838489.0,27232
1405.55,1.49318,836065.0,26857
1408.86,1.49818,834396.0,26497
1412.17,1.50635,832187.0,25934
1415.47,1.51173,830123.0,25551
1418.77,1.51835,828244.0,25108
1422.07,1.52138,827314.0,24905
1426.45,1.52181,826435.0,24854
1429.74,1.51059,825475.0,25475
1433.02,1.51751,824938.0,25056
1436.29,1.511842,823959.0,25355
1439.57,1.510709,823822.0,25417
1442.83,1.50962,823184.0,25461
1446.1,1.49484,821953.0,26303
1449.36,1.50076,821135.0,25921
1452.61,1.4988,819413.0,25984
1455.86,1.49068,817492.0,26412
1459.11,1.4909,814862.0,26314
1463.43,1.48775,811075.0,26382
1466.67,1.48309,807671.0,26555
1469.9,1.485369,803699.0,26286
1473.13,1.48188,799396.0,26356
1476.35,1.47598,795129.0,26574
1479.57,1.48147,790127.0,26075
1482.78,1.47576,784937.0,26247
1486,1.47255,779544.0,26260
1489.2,1.46938,773733.0,26255
1492.4,1.47193,767463.0,25890
1496.67,1.46806,758614.0,25820
1499.86,1.466069,751802.0,25706
1503.04,1.469743,744297.0,25235
1506.23,1.46368,735980.0,25304
1509.41,1.4684,728040.0,24760
1512.58,1.4713,719703.0,24314
1515.75,1.46443,710982.0,24402
1518.92,1.4758,702409.0,23485
1522.08,1.47525,693280.0,23209
1525.24,1.47349,683935.0,22989
1529.44,1.47862,671492.0,22306
1532.59,1.47799,661352.0,22001
1535.73,1.47724,650841.0,21689
1538.87,1.479909,640156.0,21202
1542,1.47984,629036.0,20837
1545.13,1.484989,617445.0,20212
1548.26,1.472014,605527.0,20423
1551.38,1.47004,594133.0,20130
1554.49,1.47333,582894.0,19600
1557.61,1.46536,571271.0,19565
1561.75,1.47428,555940.0,18653
1564.85,1.47627,544812.0,18196
1567.95,1.47362,533402.0,17924
1571.05,1.47174,521915.0,17614
1574.14,1.47264,510788.0,17203
1577.22,1.47912,499607.0,16577
1580.3,1.46972,487992.0,16546
1583.38,1.4629,476265.0,16404
1586.45,1.46794,464618.0,15818
1589.52,1.47436,452782.0,15189
1593.6,1.46979,436897.0,14811
1596.66,1.47398,425551.0,14288
1599.71,1.460591,414191.0,14342
1602.76,1.46229,402799.0,13893
1605.81,1.45531,391352.0,13717
1608.85,1.4716,380811.0,12856
1611.89,1.47853,370076.0,12296
1614.92,1.47964,359798.0,11924
1617.95,1.47104,349165.0,11803
1620.97,1.46639,338717.0,11573
1624.99,1.46247,325435.0,11220
1628.01,1.463799,315463.0,10843
1631.02,1.47937,305570.0,10133
1634.02,1.466664,295762.0,10099
1637.02,1.49422,286306.0,9175
1640.02,1.46218,276696.0,9546
1643.01,1.47992,267004.0,8843
1646,1.46679,257531.0,8791
1648.98,1.47187,247817.0,8361
1651.96,1.48094,238547.0,7882
1655.93,1.492022,225092.0,7250
1658.89,1.47758,214425.0,7140
1661.86,1.47612,202241.0,6757
1664.82,1.45597,188046.0,6581
1667.78,1.4557,171566.0,6008
1670.73,1.42543,154101.0,5786
1673.67,1.4231,134892.0,5092
1676.62,1.42624,115325.0,4322
1679.56,1.4549,97255.0,3412
1682.49,1.41359,81017.0,3126
1686.4,1.379031,63571.0,2656
1689.32,1.39444,53566.0,2160
1692.24,1.42444,45493.0,1712
1695.16,1.448278,39217.0,1397
1698.07,1.59662,33537.0,849
1700.97,1.70753,29118.0,571

File: LLDPE16_Column 1_20211230_113810.csv
***Scan Config Information***,,,,,,,***Reference Scan Information***,,,,,,,,
Scan Config Name:,Column 1,,,,,,Scan Config Name:,Built-in Factory Reference,,,,,,
Scan Config Type:,Slew,Num Section:,1,,,,Scan Config Type:,Slew,Num Section:,1,,,,,
Section Config Type:,Column,,,,,,Section Config Type:,Column,,,,,,,
Start Wavelength (nm):,900,,,,,,Start Wavelength (nm):,900.0,,,,,,
End Wavelength (nm):,1700,,,,,,End Wavelength (nm):,1700.0,,,,,,
Pattern Width (nm):,7.03,,,,,,Pattern Width (nm):,7.03,,,,,,,
Exposure (ms):,0.635,,,,,,Exposure (ms):,0.635,,,,,,,
Digital Resolution:,228,,,,,,Digital Resolution:,228,,,,,,,
Num Repeats:,6,,,,,,Num Repeats:,30,,,,,,,
PGA Gain:,64,,,,,,PGA Gain:,64,,,,,,
System Temp (C):,30.89,,,,,,System Temp (C):,24.17,,,,,,,
Humidity (%):,36.32,,,,,,Humidity (%):,30.0,,,,,,
Battery Capacity (%):,53,,,,,,Lamp Intensity:,2449,,,,,,,
Lamp Intensity:,2624,,,,,,Data Date-Time:,19/12/12T12:44:54,,,,,,
Data Date-Time:,18/1/1T7:17:28,,,,,,,,,,,,,,
Total Measurement Time in sec:,5.33,,,,,,,,,,,,,
***General Information***,,,,,,,***Calibration Coefficients***,,,,,,,,
Model Name:,NIR-S-G1,,,,,,Shift Vector Coefficients:,-8.44101,0.0554567,-8.45244e-05,,,,,
Serial Number:,947R055,95UB122GC0A947R055,,,,,Pixel to Wavelength Coefficients:,1795.87,-0.92014,-0.00023961,,,,,
APP Version:,2.16.7,,,,,,,,,,,,,
TIVA Version:,2.4.4,,,,,,***Lamp Usage * **,,,,,,,,
UUID:,de:67:c:88:67:2c:2d:21,,,,,,Total Time(HH:MM:SS):,14min 11sec ,,,,,,,
Main Board Version:,D,,,,,,***Device/Error Status***,,,,,,,,
Detector Board Version:,B,,,,,,Device Status:,0x00000031,,,,,,
,,,,,,,Error status:,0x00000000,Error Code:,0x00000000000000000000000000000000,,,,,
,,,,,,,,,Error Details:,Not Found,,,,,
***Scan Data***,,,,,,,,,,,,,,,
Wavelength (nm),Absorbance (AU),Reference Signal (unitless),Sample Signal (unitless)
901.841,1.489316,99968.0,3240
905.754,1.463715,108993.0,3747
909.663,1.498647,118185.0,3749
913.568,1.44456,129285.0,4645
917.469,1.48189,143347.0,4726
921.365,1.5066,160437.0,4997
925.257,1.46585,180387.0,6171
929.144,1.50512,201426.0,6295
933.028,1.48803,220694.0,7174
936.906,1.469546,237501.0,8056
942.072,1.482437,256956.0,8461
945.94,1.46232,270636.0,9334
949.805,1.47465,283621.0,9508
953.665,1.46417,296982.0,10199
957.521,1.46963,310733.0,10538
961.373,1.453627,324587.0,11421
965.22,1.47173,339205.0,11448
969.063,1.46509,353669.0,12120
972.902,1.46983,368253.0,12483
976.736,1.461731,382531.0,13211
981.842,1.459,399901.0,13898
985.666,1.45189,411528.0,14538
989.486,1.46236,422199.0,14560
993.302,1.45053,431172.0,15280
997.113,1.46506,438051.0,15013
1000.92,1.45316,444216.0,15647
1004.72,1.45639,449307.0,15709
1008.52,1.45299,453601.0,15984
1012.32,1.46077,456801.0,15811
1016.11,1.46172,459312.0,15863
1021.15,1.46008,461643.0,16004
1024.93,1.46817,463069.0,15757
1028.71,1.463416,463868.0,15958
1032.48,1.47142,464326.0,15682
1036.24,1.46167,466001.0,16096
1040.01,1.4698,466870.0,15827
1043.77,1.4782,467033.0,15529
1047.52,1.47059,467045.0,15804
1051.27,1.464709,467467.0,16034
1055.01,1.47171,467627.0,15783
1060,1.47611,468351.0,15648
1063.74,1.464771,469050.0,16086
1067.47,1.465377,469880.0,16092
1071.19,1.471288,471228.0,15920
1074.92,1.47072,472558.0,15986
1078.63,1.46149,474087.0,16382
1082.35,1.47936,476569.0,15804
1086.06,1.47591,479445.0,16026
1089.76,1.48148,481756.0,15898
1093.46,1.47991,485147.0,16068
1098.39,1.48105,489755.0,16178
1102.08,1.47597,493535.0,16495
1105.77,1.47712,497426.0,16581
1109.45,1.4811,501308.0,16558
1113.13,1.47232,505725.0,17045
1116.8,1.47888,509421.0,16912
1120.47,1.48569,513217.0,16773
1124.13,1.47737,517470.0,17239
1127.79,1.48032,521690.0,17262
1131.45,1.48214,526099.0,17335
1136.32,1.47909,531329.0,17631
1139.96,1.48435,535549.0,17557
1143.61,1.488978,539808.0,17509
1147.24,1.48593,543900.0,17766
1150.88,1.50021,547908.0,17318
1154.5,1.49246,552170.0,17767
1158.13,1.49788,556773.0,17693
1161.75,1.52179,561098.0,16875
1165.36,1.52015,565898.0,17084
1168.98,1.51704,571300.0,17371
1172.58,1.52763,576602.0,17110
1177.39,1.52818,584320.0,17317
1180.98,1.54047,589396.0,16980
1184.58,1.56812,596143.0,16115
1188.16,1.553917,602955.0,16841
1191.75,1.56637,609704.0,16548
1195.33,1.57956,617215.0,16251
1198.9,1.57363,624471.0,16668
1202.48,1.59513,632472.0,16066
1206.04,1.61594,640381.0,15506
1209.61,1.624783,648161.0,15378
1214.35,1.63659,659999.0,15239
1217.9,1.63439,668609.0,15516
1221.45,1.62061,677405.0,16227
1224.99,1.60158,686281.0,17176
1228.53,1.59455,695317.0,17686
1232.07,1.57803,704063.0,18603
1235.6,1.55986,713007.0,19644
1239.13,1.55261,721330.0,20208
1242.65,1.54172,730030.0,20971
1246.17,1.53927,737591.0,21308
1250.85,1.53605,746809.0,21735
1254.36,1.53609,753336.0,21923
1257.86,1.52562,759907.0,22654
1261.36,1.52491,766538.0,22889
1264.86,1.52318,774802.0,23228
1268.35,1.526043,784025.0,23350
1271.83,1.52432,794336.0,23751
1275.32,1.52306,804198.0,24116
1278.79,1.52066,813836.0,24540
1282.27,1.52531,823595.0,24570
1286.89,1.51753,834533.0,25346
1290.36,1.51791,842581.0,25568
1293.81,1.515678,849301.0,25905
1297.27,1.51889,856026.0,25918
1300.72,1.52461,862498.0,25772
1304.17,1.52175,868068.0,26110
1307.61,1.52527,872869.0,26042
1311.05,1.52121,877616.0,26430
1314.48,1.52857,881872.0,26112
1317.91,1.52756,885520.0,26281
1322.47,1.52975,888917.0,26249
1325.89,1.52839,891687.0,26413
1329.31,1.51835,894001.0,27101
1332.72,1.52489,895438.0,26739
1336.12,1.52785,896641.0,26593
1339.52,1.523576,897974.0,26896
1342.92,1.53093,898777.0,26468
1346.31,1.5318,898783.0,26415
1349.7,1.53194,898350.0,26394
1353.09,1.530525,896784.0,26434
1357.59,1.53734,895293.0,25979
1360.97,1.53005,892755.0,26344
1364.34,1.53519,890430.0,25966
1367.7,1.53961,888504.0,25648
1371.06,1.5527,885825.0,24811
1374.42,1.54796,881046.0,24948
1377.77,1.563947,874030.0,23855
1381.12,1.55745,865751.0,23985
1384.47,1.57484,857799.0,22832
1387.81,1.589179,851759.0,21935
1392.25,1.60821,846500.0,20865
1395.58,1.61684,843622.0,20385
1398.91,1.61039,841228.0,20631
1402.23,1.603081,838489.0,20913
1405.55,1.5964,836065.0,21176
1408.86,1.599277,834396.0,20994
1412.17,1.61631,832187.0,20133
1415.47,1.61631,830123.0,20083
1418.77,1.62064,828244.0,19839
1422.07,1.61497,827314.0,20077
1426.45,1.60916,826435.0,20326
1429.74,1.61323,825475.0,20113
1433.02,1.60764,824938.0,20360
1436.29,1.60952,823959.0,20248
1439.57,1.60098,823822.0,20647
1442.83,1.59907,823184.0,20722
1446.1,1.60282,821953.0,20513
1449.36,1.59702,821135.0,20768
1452.61,1.58627,819413.0,21244
1455.86,1.592462,817492.0,20894
1459.11,1.58915,814862.0,20986
1463.43,1.58178,811075.0,21246
1466.67,1.58634,807671.0,20936
1469.9,1.58753,803699.0,20776
1473.13,1.58228,799396.0,20916
1476.35,1.57558,795129.0,21128
1479.57,1.57865,790127.0,20847
1482.78,1.58116,784937.0,20591
1486,1.56781,779544.0,21088
1489.2,1.5776,773733.0,20464
1492.4,1.561496,767463.0,21065
1496.67,1.566681,758614.0,20575
1499.86,1.56998,751802.0,20236
1503.04,1.56862,744297.0,20097
1506.23,1.56568,735980.0,20007
1509.41,1.55982,728040.0,20060
1512.58,1.56156,719703.0,19751
1515.75,1.56883,710982.0,19188
1518.92,1.56759,702409.0,19011
1522.08,1.57172,693280.0,18586
1525.24,1.56438,683935.0,18648
1529.44,1.56571,671492.0,18253
1532.59,1.563763,661352.0,18058
1535.73,1.57024,650841.0,17508
1538.87,1.57591,640156.0,16997
1542,1.57875,629036.0,16593
1545.13,1.579638,617445.0,16254
1548.26,1.570399,605527.0,16283
1551.38,1.568084,594133.0,16062
1554.49,1.57405,582894.0,15543
1557.61,1.574713,571271.0,15210
1561.75,1.55903,555940.0,15346
1564.85,1.55586,544812.0,15149
1567.95,1.55111,533402.0,14995
1571.05,1.56467,521915.0,14221
1574.14,1.5544,510788.0,14251
1577.22,1.57687,499607.0,13236
1580.3,1.55315,487992.0,13654
1583.38,1.56244,476265.0,13044
1586.45,1.56759,464618.0,12575
1589.52,1.5577,452782.0,12537
1593.6,1.563593,436897.0,11934
1596.66,1.57873,425551.0,11226
1599.71,1.55571,414191.0,11521
1602.76,1.56417,402799.0,10988
1605.81,1.55442,391352.0,10918
1608.85,1.55051,380811.0,10720
1611.89,1.5588,370076.0,10221
1614.92,1.55273,359798.0,10077
1617.95,1.56266,349165.0,9558
1620.97,1.54802,338717.0,9590
1624.99,1.55505,325435.0,9066
1628.01,1.5643,315463.0,8603
1631.02,1.56803,305570.0,8262
1634.02,1.5631,295762.0,8088
1637.02,1.54926,286306.0,8083
1640.02,1.58131,276696.0,7256
1643.01,1.55372,267004.0,7461
1646,1.56067,257531.0,7082
1648.98,1.54031,247817.0,7142
1651.96,1.55547,238547.0,6639
1655.93,1.58306,225092.0,5879
1658.89,1.57176,214425.0,5748
1661.86,1.55382,202241.0,5650
1664.82,1.52515,188046.0,5612
1667.78,1.54468,171566.0,4895
1670.73,1.5226,154101.0,4626
1673.67,1.48831,134892.0,4382
1676.62,1.47264,115325.0,3884
1679.56,1.450975,97255.0,3443
1682.49,1.41387,81017.0,3124
1686.4,1.406711,63571.0,2492
1689.32,1.432224,53566.0,1980
1692.24,1.5187,45493.0,1378
1695.16,1.47521,39217.0,1313
1698.07,1.45071,33537.0,1188
1700.97,1.52414,29118.0,871