Folder: Dorgan_Laubach_Research/Data/LLDPE (part 2)

File: LLDPE3_Column 1_20211230_113458.csv
***Scan Config Information***,,,,,,,***Reference Scan Information***,,,,,,,,
Scan Config Name:,Column 1,,,,,,Scan Config Name:,Built-in Factory Reference,,,,,,
Scan Config Type:,Slew,Num Section:,1,,,,Scan Config Type:,Slew,Num Section:,1,,,,,
Section Config Type:,Column,,,,,,Section Config Type:,Column,,,,,,,
Start Wavelength (nm):,900,,,,,,Start Wavelength (nm):,900.0,,,,,,
End Wavelength (nm):,1700,,,,,,End Wavelength (nm):,1700.0,,,,,,
Pattern Width (nm):,7.03,,,,,,Pattern Width (nm):,7.03,,,,,,,
Exposure (ms):,0.635,,,,,,Exposure (ms):,0.635,,,,,,,
Digital Resolution:,228,,,,,,Digital Resolution:,228,,,,,,,
Num Repeats:,6,,,,,,Num Repeats:,30,,,,,,,
PGA Gain:,64,,,,,,PGA Gain:,64,,,,,,
System Temp (C):,29.11,,,,,,System Temp (C):,24.17,,,,,,,
Humidity (%):,36.84,,,,,,Humidity (%):,30.0,,,,,,
Battery Capacity (%):,55,,,,,,Lamp Intensity:,2449,,,,,,,
Lamp Intensity:,2593,,,,,,Data Date-Time:,19/12/12T12:44:54,,,,,,
Data Date-Time:,18/1/1T7:14:17,,,,,,,,,,,,,,
Total Measurement Time in sec:,4.978,,,,,,,,,,,,,
***General Information***,,,,,,,***Calibration Coefficients***,,,,,,,,
Model Name:,NIR-S-G1,,,,,,Shift Vector Coefficients:,-8.44101,0.0554567,-8.45244e-05,,,,,
Serial Number:,947R055,95UB122GC0A947R055,,,,,Pixel to Wavelength Coefficients:,1795.87,-0.92014,-0.00023961,,,,,
APP Version:,2.16.7,,,,,,,,,,,,,
TIVA Version:,2.4.4,,,,,,***Lamp Usage * **,,,,,,,,
UUID:,de:67:c:88:67:2c:2d:21,,,,,,Total Time(HH:MM:SS):,13min 43sec ,,,,,,,
Main Board Version:,D,,,,,,***Device/Error Status***,,,,,,,,
Detector Board Version:,B,,,,,,Device Status:,0x00000031,,,,,,
,,,,,,,Error status:,0x00000000,Error Code:,0x00000000000000000000000000000000,,,,,
,,,,,,,,,Error Details:,Not Found,,,,,
***Scan Data***,,,,,,,,,,,,,,,
Wavelength (nm),Absorbance (AU),Reference Signal (unitless),Sample Signal (unitless)
901.841,1.32317,99968.0,4750
905.754,1.36549,108993.0,4698
909.663,1.29856,118185.0,5943
913.568,1.34663,129285.0,5820
917.469,1.31609,143347.0,6923
921.365,1.35742,160437.0,7045
925.257,1.33525,180387.0,8336
929.144,1.344073,201426.0,9121
933.028,1.34895,220694.0,9882
936.906,1.32109,237501.0,11339
942.072,1.325211,256956.0,12152
945.94,1.31894,270636.0,12985
949.805,1.31847,283621.0,13623
953.665,1.323511,296982.0,14100
957.521,1.30074,310733.0,15547
961.373,1.31721,324587.0,15636
965.22,1.31085,339205.0,16581
969.063,1.30439,353669.0,17547
972.902,1.31604,368253.0,17787
976.736,1.30248,382531.0,19063
981.842,1.30157,399901.0,19970
985.666,1.30656,411528.0,20316
989.486,1.30775,422199.0,20786
993.302,1.30672,431172.0,21278
997.113,1.30977,438051.0,21466
1000.92,1.31049,444216.0,21732
1004.72,1.30373,449307.0,22326
1008.52,1.30679,453601.0,22381
1012.32,1.30797,456801.0,22478
1016.11,1.31464,459312.0,22257
1021.15,1.30367,461643.0,22942
1024.93,1.31757,463069.0,22288
1028.71,1.31735,463868.0,22338
1032.48,1.31377,464326.0,22545
1036.24,1.32141,466001.0,22232
1040.01,1.31908,466870.0,22393
1043.77,1.321959,467033.0,22253
1047.52,1.31689,467045.0,22515
1051.27,1.31682,467467.0,22539
1055.01,1.31851,467627.0,22459
1060,1.31327,468351.0,22767
1063.74,1.31287,469050.0,22822
1067.47,1.33218,469880.0,21868
1071.19,1.3182,471228.0,22648
1074.92,1.31563,472558.0,22847
1078.63,1.31504,474087.0,22952
1082.35,1.32216,476569.0,22697
1086.06,1.32273,479445.0,22804
1089.76,1.32596,481756.0,22744
1093.46,1.32039,485147.0,23200
1098.39,1.32393,489755.0,23230
1102.08,1.3191,493535.0,23671
1105.77,1.328237,497426.0,23361
1109.45,1.32234,501308.0,23865
1113.13,1.32365,505725.0,24003
1116.8,1.32454,509421.0,24129
1120.47,1.32582,513217.0,24237
1124.13,1.33425,517470.0,23968
1127.79,1.33274,521690.0,24248
1131.45,1.33118,526099.0,24541
1136.32,1.33046,531329.0,24826
1139.96,1.3351,535549.0,24757
1143.61,1.33158,539808.0,25157
1147.24,1.33593,543900.0,25095
1150.88,1.33326,547908.0,25436
1154.5,1.33587,552170.0,25480
1158.13,1.35402,556773.0,24641
1161.75,1.35747,561098.0,24636
1165.36,1.3691,565898.0,24190
1168.98,1.36999,571300.0,24371
1172.58,1.37434,576602.0,24352
1177.39,1.37531,584320.0,24623
1180.98,1.38441,589396.0,24322
1184.58,1.39425,596143.0,24049
1188.16,1.40314,602955.0,23831
1191.75,1.42079,609704.0,23138
1195.33,1.42525,617215.0,23184
1198.9,1.439123,624471.0,22719
1202.48,1.45136,632472.0,22371
1206.04,1.47108,640381.0,21645
1209.61,1.48547,648161.0,21194
1214.35,1.497324,659999.0,21000
1217.9,1.47817,668609.0,22233
1221.45,1.47728,677405.0,22572
1224.99,1.45465,686281.0,24091
1228.53,1.43301,695317.0,25655
1232.07,1.41129,704063.0,27310
1235.6,1.400311,713007.0,28365
1239.13,1.39403,721330.0,29114
1242.65,1.38466,730030.0,30108
1246.17,1.377155,737591.0,30950
1250.85,1.37162,746809.0,31739
1254.36,1.36519,753336.0,32494
1257.86,1.36271,759907.0,32965
1261.36,1.36457,766538.0,33110
1264.86,1.36552,774802.0,33394
1268.35,1.36201,784025.0,34066
1271.83,1.358213,794336.0,34817
1275.32,1.36002,804198.0,35103
1278.79,1.36658,813836.0,34991
1282.27,1.36443,823595.0,35586
1286.89,1.36224,834533.0,36241
1290.36,1.35916,842581.0,36851
1293.81,1.355633,849301.0,37448
1297.27,1.36072,856026.0,37305
1300.72,1.35928,862498.0,37712
1304.17,1.3635,868068.0,37588
1307.61,1.36165,872869.0,37958
1311.05,1.35729,877616.0,38549
1314.48,1.364378,881872.0,38109
1317.91,1.36061,885520.0,38600
1322.47,1.360119,888917.0,38792
1325.89,1.36113,891687.0,38822
1329.31,1.36034,894001.0,38994
1332.72,1.361517,895438.0,38951
1336.12,1.36456,896641.0,38731
1339.52,1.36238,897974.0,38984
1342.92,1.359768,898777.0,39254
1346.31,1.36124,898783.0,39121
1349.7,1.36571,898350.0,38702
1353.09,1.3672,896784.0,38502
1357.59,1.36796,895293.0,38371
1360.97,1.37088,892755.0,38006
1364.34,1.37885,890430.0,37218
1367.7,1.37878,888504.0,37143
1371.06,1.38009,885825.0,36920
1374.42,1.3907,881046.0,35834
1377.77,1.39649,874030.0,35078
1381.12,1.40753,865751.0,33874
1384.47,1.4226,857799.0,32418
1387.81,1.44016,851759.0,30914
1392.25,1.461917,846500.0,29222
1395.58,1.45863,843622.0,29344
1398.91,1.44916,841228.0,29906
1402.23,1.44483,838489.0,30107
1405.55,1.44791,836065.0,29808
1408.86,1.44711,834396.0,29803
1412.17,1.45687,832187.0,29064
1415.47,1.46593,830123.0,28393
1418.77,1.46651,828244.0,28291
1422.07,1.46886,827314.0,28107
1426.45,1.46696,826435.0,28200
1429.74,1.45929,825475.0,28669
1433.02,1.46349,824938.0,28375
1436.29,1.45752,823959.0,28733
1439.57,1.459437,823822.0,28602
1442.83,1.452276,823184.0,29055
1446.1,1.45493,821953.0,28835
1449.36,1.44409,821135.0,29534
1452.61,1.44589,819413.0,29350
1455.86,1.44021,817492.0,29667
1459.11,1.43554,814862.0,29891
1463.43,1.42972,811075.0,30154
1466.67,1.43438,807671.0,29707
1469.9,1.43142,803699.0,29763
1473.13,1.42336,799396.0,30158
1476.35,1.42638,795129.0,29789
1479.57,1.4222,790127.0,29888
1482.78,1.41938,784937.0,29885
1486,1.41933,779544.0,29683
1489.2,1.420702,773733.0,29369
1492.4,1.42181,767463.0,29057
1496.67,1.41819,758614.0,28962
1499.86,1.42191,751802.0,28457
1503.04,1.41035,744297.0,28933
1506.23,1.41568,735980.0,28261
1509.41,1.41899,728040.0,27744
1512.58,1.41918,719703.0,27414
1515.75,1.41945,710982.0,27065
1518.92,1.42379,702409.0,26473
1522.08,1.41983,693280.0,26368
1525.24,1.42033,683935.0,25983
1529.44,1.43096,671492.0,24893
1532.59,1.42392,661352.0,24918
1535.73,1.43444,650841.0,23935
1538.87,1.43637,640156.0,23438
1542,1.4389,629036.0,22897
1545.13,1.43008,617445.0,22936
1548.26,1.42154,605527.0,22940
1551.38,1.42178,594133.0,22496
1554.49,1.424452,582894.0,21935
1557.61,1.42344,571271.0,21548
1561.75,1.41861,555940.0,21204
1564.85,1.42116,544812.0,20658
1567.95,1.42001,533402.0,20279
1571.05,1.4277,521915.0,19494
1574.14,1.41661,510788.0,19572
1577.22,1.41372,499607.0,19271
1580.3,1.418503,487992.0,18617
1583.38,1.42132,476265.0,18052
1586.45,1.41719,464618.0,17779
1589.52,1.42434,452782.0,17043
1593.6,1.41751,436897.0,16706
1596.66,1.41666,425551.0,16304
1599.71,1.4172,414191.0,15849
1602.76,1.42125,402799.0,15270
1605.81,1.42484,391352.0,14714
1608.85,1.42395,380811.0,14347
1611.89,1.4157,370076.0,14210
1614.92,1.42144,359798.0,13634
1617.95,1.43002,349165.0,12972
1620.97,1.4171,338717.0,12964
1624.99,1.42259,325435.0,12299
1628.01,1.41886,315463.0,12025
1631.02,1.43893,305570.0,11122
1634.02,1.42056,295762.0,11230
1637.02,1.419165,286306.0,10906
1640.02,1.41957,276696.0,10530
1643.01,1.418642,267004.0,10183
1646,1.45644,257531.0,9003
1648.98,1.43186,247817.0,9168
1651.96,1.43284,238547.0,8805
1655.93,1.42136,225092.0,8531
1658.89,1.429327,214425.0,7979
1661.86,1.4343,202241.0,7440
1664.82,1.42917,188046.0,7000
1667.78,1.432479,171566.0,6338
1670.73,1.40533,154101.0,6060
1673.67,1.36417,134892.0,5832
1676.62,1.37502,115325.0,4863
1679.56,1.37207,97255.0,4129
1682.49,1.38301,81017.0,3354
1686.4,1.38248,63571.0,2635
1689.32,1.35635,53566.0,2358
1692.24,1.57052,45493.0,1223
1695.16,1.32583,39217.0,1852
1698.07,1.443098,33537.0,1209
1700.97,1.73419,29118.0,537

File: LLDPE4_Column 1_20211230_113513.csv
***Scan Config Information***,,,,,,,***Reference Scan Information***,,,,,,,,
Scan Config Name:,Column 1,,,,,,Scan Config Name:,Built-in Factory Reference,,,,,,
Scan Config Type:,Slew,Num Section:,1,,,,Scan Config Type:,Slew,Num Section:,1,,,,,
Section Config Type:,Column,,,,,,Section Config Type:,Column,,,,,,,
Start Wavelength (nm):,900,,,,,,Start Wavelength (nm):,900.0,,,,,,
End Wavelength (nm):,1700,,,,,,End Wavelength (nm):,1700.0,,,,,,
Pattern Width (nm):,7.03,,,,,,Pattern Width (nm):,7.03,,,,,,,
Exposure (ms):,0.635,,,,,,Exposure (ms):,0.635,,,,,,,
Digital Resolution:,228,,,,,,Digital Resolution:,228,,,,,,,
Num Repeats:,6,,,,,,Num Repeats:,30,,,,,,,
PGA Gain:,64,,,,,,PGA Gain:,64,,,,,,
System Temp (C):,29.26,,,,,,System Temp (C):,24.17,,,,,,,
Humidity (%):,36.93,,,,,,Humidity (%):,30.0,,,,,,
Battery Capacity (%):,55,,,,,,Lamp Intensity:,2449,,,,,,,
Lamp Intensity:,2596,,,,,,Data Date-Time:,19/12/12T12:44:54,,,,,,
Data Date-Time:,18/1/1T7:14:31,,,,,,,,,,,,,,
Total Measurement Time in sec:,5.069,,,,,,,,,,,,,
***General Information***,,,,,,,***Calibration Coefficients***,,,,,,,,
Model Name:,NIR-S-G1,,,,,,Shift Vector Coefficients:,-8.44101,0.0554567,-8.45244e-05,,,,,
Serial Number:,947R055,95UB122GC0A947R055,,,,,Pixel to Wavelength Coefficients:,1795.87,-0.92014,-0.00023961,,,,,
APP Version:,2.16.7,,,,,,,,,,,,,
TIVA Version:,2.4.4,,,,,,***Lamp Usage * **,,,,,,,,
UUID:,de:67:c:88:67:2c:2d:21,,,,,,Total Time(HH:MM:SS):,13min 45sec ,,,,,,,
Main Board Version:,D,,,,,,***Device/Error Status***,,,,,,,,
Detector Board Version:,B,,,,,,Device Status:,0x00000031,,,,,,
,,,,,,,Error status:,0x00000000,Error Code:,0x00000000000000000000000000000000,,,,,
,,,,,,,,,Error Details:,Not Found,,,,,
***Scan Data***,,,,,,,,,,,,,,,
Wavelength (nm),Absorbance (AU),Reference Signal (unitless),Sample Signal (unitless)
901.841,1.3356,99968.0,4616
905.754,1.28658,108993.0,5634
909.663,1.314332,118185.0,5731
913.568,1.29471,129285.0,6559
917.469,1.32171,143347.0,6834
921.365,1.33117,160437.0,7484
925.257,1.3398,180387.0,8249
929.144,1.33423,201426.0,9330
933.028,1.33003,220694.0,10322
936.906,1.3169,237501.0,11449
942.072,1.30797,256956.0,12644
945.94,1.30968,270636.0,13265
949.805,1.294406,283621.0,14399
953.665,1.32462,296982.0,14064
957.521,1.31485,310733.0,15050
961.373,1.31026,324587.0,15888
965.22,1.31245,339205.0,16520
969.063,1.31456,353669.0,17141
972.902,1.31174,368253.0,17964
976.736,1.30197,382531.0,19085
981.842,1.30014,399901.0,20036
985.666,1.3043,411528.0,20422
989.486,1.30456,422199.0,20939
993.302,1.31494,431172.0,20879
997.113,1.30818,438051.0,21545
1000.92,1.30914,444216.0,21800
1004.72,1.30872,449307.0,22071
1008.52,1.31038,453601.0,22197
1012.32,1.30816,456801.0,22468
1016.11,1.31215,459312.0,22385
1021.15,1.30776,461643.0,22727
1024.93,1.3175,463069.0,22292
1028.71,1.31502,463868.0,22458
1032.48,1.313715,464326.0,22548
1036.24,1.30832,466001.0,22912
1040.01,1.3139,466870.0,22662
1043.77,1.32301,467033.0,22199
1047.52,1.32201,467045.0,22251
1051.27,1.32461,467467.0,22138
1055.01,1.31336,467627.0,22727
1060,1.319994,468351.0,22417
1063.74,1.322486,469050.0,22322
1067.47,1.31936,469880.0,22523
1071.19,1.315849,471228.0,22771
1074.92,1.32332,472558.0,22446
1078.63,1.31798,474087.0,22797
1082.35,1.31744,476569.0,22945
1086.06,1.32303,479445.0,22788
1089.76,1.328834,481756.0,22594
1093.46,1.32488,485147.0,22961
1098.39,1.32371,489755.0,23242
1102.08,1.32305,493535.0,23457
1105.77,1.32277,497426.0,23657
1109.45,1.32395,501308.0,23777
1113.13,1.32188,505725.0,24101
1116.8,1.32409,509421.0,24154
1120.47,1.33033,513217.0,23987
1124.13,1.325269,517470.0,24469
1127.79,1.32842,521690.0,24490
1131.45,1.33279,526099.0,24450
1136.32,1.32943,531329.0,24885
1139.96,1.32828,535549.0,25149
1143.61,1.33402,539808.0,25016
1147.24,1.33826,543900.0,24961
1150.88,1.34315,547908.0,24863
1154.5,1.34043,552170.0,25214
1158.13,1.35545,556773.0,24560
1161.75,1.36195,561098.0,24383
1165.36,1.35649,565898.0,24903
1168.98,1.37053,571300.0,24341
1172.58,1.36957,576602.0,24621
1177.39,1.38572,584320.0,24040
1180.98,1.3881,589396.0,24116
1184.58,1.38707,596143.0,24450
1188.16,1.39737,602955.0,24150
1191.75,1.40738,609704.0,23864
1195.33,1.41686,617215.0,23636
1198.9,1.43956,624471.0,22696
1202.48,1.45418,632472.0,22226
1206.04,1.47034,640381.0,21682
1209.61,1.48668,648161.0,21135
1214.35,1.4921,659999.0,21254
1217.9,1.4934,668609.0,21467
1221.45,1.47043,677405.0,22931
1224.99,1.45483,686281.0,24081
1228.53,1.44151,695317.0,25158
1232.07,1.41897,704063.0,26831
1235.6,1.40403,713007.0,28123
1239.13,1.39638,721330.0,28957
1242.65,1.39443,730030.0,29438
1246.17,1.38827,737591.0,30168
1250.85,1.3831,746809.0,30911
1254.36,1.37683,753336.0,31634
1257.86,1.37692,759907.0,31904
1261.36,1.36667,766538.0,32951
1264.86,1.37035,774802.0,33025
1268.35,1.37262,784025.0,33244
1271.83,1.37181,794336.0,33744
1275.32,1.37154,804198.0,34184
1278.79,1.36979,813836.0,34733
1282.27,1.37218,823595.0,34957
1286.89,1.37366,834533.0,35301
1290.36,1.37065,842581.0,35889
1293.81,1.3702,849301.0,36213
1297.27,1.36939,856026.0,36568
1300.72,1.37341,862498.0,36505
1304.17,1.373131,868068.0,36764
1307.61,1.36865,872869.0,37351
1311.05,1.367159,877616.0,37683
1314.48,1.37365,881872.0,37304
1317.91,1.37163,885520.0,37633
1322.47,1.37142,888917.0,37796
1325.89,1.37023,891687.0,38017
1329.31,1.371166,894001.0,38034
1332.72,1.37711,895438.0,37577
1336.12,1.37525,896641.0,37789
1339.52,1.369623,897974.0,38339
1342.92,1.37531,898777.0,37874
1346.31,1.37218,898783.0,38148
1349.7,1.38014,898350.0,37437
1353.09,1.3817,896784.0,37238
1357.59,1.38152,895293.0,37192
1360.97,1.3883,892755.0,36512
1364.34,1.388248,890430.0,36421
1367.7,1.39466,888504.0,35810
1371.06,1.395,885825.0,35674
1374.42,1.40394,881046.0,34758
1377.77,1.41212,874030.0,33838
1381.12,1.4235,865751.0,32651
1384.47,1.43364,857799.0,31604
1387.81,1.45195,851759.0,30086
1392.25,1.47561,846500.0,28315
1395.58,1.46943,843622.0,28623
1398.91,1.45808,841228.0,29298
1402.23,1.45938,838489.0,29115
1405.55,1.45631,836065.0,29237
1408.86,1.46662,834396.0,28494
1412.17,1.4688,832187.0,28276
1415.47,1.4823,830123.0,27343
1418.77,1.47982,828244.0,27437
1422.07,1.477202,827314.0,27572
1426.45,1.47682,826435.0,27567
1429.74,1.48091,825475.0,27277
1433.02,1.47446,824938.0,27667
1436.29,1.47013,823959.0,27911
1439.57,1.46931,823822.0,27959
1442.83,1.47145,823184.0,27800
1446.1,1.46532,821953.0,28153
1449.36,1.46058,821135.0,28434
1452.61,1.46239,819413.0,28256
1455.86,1.450925,817492.0,28944
1459.11,1.44999,814862.0,28913
1463.43,1.4494,811075.0,28818
1466.67,1.44388,807671.0,29064
1469.9,1.444406,803699.0,28886
1473.13,1.44536,799396.0,28668
1476.35,1.43695,795129.0,29073
1479.57,1.4324,790127.0,29194
1482.78,1.43562,784937.0,28788
1486,1.44173,779544.0,28191
1489.2,1.43651,773733.0,28319
1492.4,1.43728,767463.0,28040
1496.67,1.43432,758614.0,27906
1499.86,1.43428,751802.0,27658
1503.04,1.43049,744297.0,27622
1506.23,1.42404,735980.0,27722
1509.41,1.43561,728040.0,26702
1512.58,1.43445,719703.0,26467
1515.75,1.44377,710982.0,25591
1518.92,1.433609,702409.0,25881
1522.08,1.4371,693280.0,25340
1525.24,1.43095,683935.0,25355
1529.44,1.43901,671492.0,24436
1532.59,1.4399,661352.0,24018
1535.73,1.44428,650841.0,23399
1538.87,1.44403,640156.0,23028
1542,1.43631,629036.0,23034
1545.13,1.43876,617445.0,22482
1548.26,1.44125,605527.0,21922
1551.38,1.430672,594133.0,22040
1554.49,1.44287,582894.0,21024
1557.61,1.43636,571271.0,20916
1561.75,1.43089,555940.0,20613
1564.85,1.43353,544812.0,20078
1567.95,1.43829,533402.0,19443
1571.05,1.429619,521915.0,19408
1574.14,1.43533,510788.0,18746
1577.22,1.43737,499607.0,18250
1580.3,1.43763,487992.0,17815
1583.38,1.4315,476265.0,17634
1586.45,1.43326,464618.0,17133
1589.52,1.43437,452782.0,16654
1593.6,1.44379,436897.0,15725
1596.66,1.43736,425551.0,15545
1599.71,1.43166,414191.0,15330
1602.76,1.42422,402799.0,15166
1605.81,1.43535,391352.0,14362
1608.85,1.41934,380811.0,14500
1611.89,1.4419,370076.0,13378
1614.92,1.43565,359798.0,13195
1617.95,1.42616,349165.0,13088
1620.97,1.45221,338717.0,11957
1624.99,1.44066,325435.0,11798
1628.01,1.43543,315463.0,11575
1631.02,1.44685,305570.0,10921
1634.02,1.44067,295762.0,10722
1637.02,1.45579,286306.0,10024
1640.02,1.43729,276696.0,10109
1643.01,1.45636,267004.0,9336
1646,1.46129,257531.0,8903
1648.98,1.43868,247817.0,9025
1651.96,1.45714,238547.0,8326
1655.93,1.455063,225092.0,7894
1658.89,1.4257,214425.0,8046
1661.86,1.43034,202241.0,7508
1664.82,1.43781,188046.0,6862
1667.78,1.43316,171566.0,6328
1670.73,1.44492,154101.0,5532
1673.67,1.39945,134892.0,5377
1676.62,1.38477,115325.0,4755
1679.56,1.38912,97255.0,3970
1682.49,1.31829,81017.0,3893
1686.4,1.34341,63571.0,2883
1689.32,1.339546,53566.0,2451
1692.24,1.36414,45493.0,1967
1695.16,1.42116,39217.0,1487
1698.07,1.36746,33537.0,1439
1700.97,1.492422,29118.0,937