Folder: Dorgan_Laubach_Research/Data/LLDPE (part 5)

File: LLDPE9_Column 1_20211230_113623.csv
***Scan Config Information***,,,,,,,***Reference Scan Information***,,,,,,,,
Scan Config Name:,Column 1,,,,,,Scan Config Name:,Built-in Factory Reference,,,,,,
Scan Config Type:,Slew,Num Section:,1,,,,Scan Config Type:,Slew,Num Section:,1,,,,,
Section Config Type:,Column,,,,,,Section Config Type:,Column,,,,,,,
Start Wavelength (nm):,900,,,,,,Start Wavelength (nm):,900.0,,,,,,
End Wavelength (nm):,1700,,,,,,End Wavelength (nm):,1700.0,,,,,,
Pattern Width (nm):,7.03,,,,,,Pattern Width (nm):,7.03,,,,,,,
Exposure (ms):,0.635,,,,,,Exposure (ms):,0.635,,,,,,,
Digital Resolution:,228,,,,,,Digital Resolution:,228,,,,,,,
Num Repeats:,6,,,,,,Num Repeats:,30,,,,,,,
PGA Gain:,64,,,,,,PGA Gain:,64,,,,,,
System Temp (C):,29.93,,,,,,System Temp (C):,24.17,,,,,,,
Humidity (%):,36.68,,,,,,Humidity (%):,30.0,,,,,,
Battery Capacity (%):,54,,,,,,Lamp Intensity:,2449,,,,,,,
Lamp Intensity:,2608,,,,,,Data Date-Time:,19/12/12T12:44:54,,,,,,
Data Date-Time:,18/1/1T7:15:41,,,,,,,,,,,,,,
Total Measurement Time in sec:,5.207,,,,,,,,,,,,,
***General Information***,,,,,,,***Calibration Coefficients***,,,,,,,,
Model Name:,NIR-S-G1,,,,,,Shift Vector Coefficients:,-8.44101,0.0554567,-8.45244e-05,,,,,
Serial Number:,947R055,95UB122GC0A947R055,,,,,Pixel to Wavelength Coefficients:,1795.87,-0.92014,-0.00023961,,,,,
APP Version:,2.16.7,,,,,,,,,,,,,
TIVA Version:,2.4.4,,,,,,***Lamp Usage * **,,,,,,,,
UUID:,de:67:c:88:67:2c:2d:21,,,,,,Total Time(HH:MM:SS):,13min 56sec ,,,,,,,
Main Board Version:,D,,,,,,***Device/Error Status***,,,,,,,,
Detector Board Version:,B,,,,,,Device Status:,0x00000031,,,,,,
,,,,,,,Error status:,0x00000000,Error Code:,0x00000000000000000000000000000000,,,,,
,,,,,,,,,Error Details:,Not Found,,,,,
***Scan Data***,,,,,,,,,,,,,,,
Wavelength (nm),Absorbance (AU),Reference Signal (unitless),Sample Signal (unitless)
901.841,1.60523,99968.0,2481
905.754,1.54828,108993.0,3084
909.663,1.57924,118185.0,3114
913.568,1.50078,129285.0,4081
917.469,1.5178,143347.0,4351
921.365,1.55094,160437.0,4512
925.257,1.52915,180387.0,5334
929.144,1.54347,201426.0,5763
933.028,1.54061,220694.0,6356
936.906,1.52625,237501.0,7070
942.072,1.535203,256956.0,7493
945.94,1.51284,270636.0,8309
949.805,1.50486,283621.0,8869
953.665,1.494778,296982.0,9505
957.521,1.50236,310733.0,9773
961.373,1.48989,324587.0,10506
965.22,1.51122,339205.0,10453
969.063,1.50214,353669.0,11129
972.902,1.50424,368253.0,11532
976.736,1.51034,382531.0,11812
981.842,1.49597,399901.0,12764
985.666,1.50324,411528.0,12917
989.486,1.50429,422199.0,13220
993.302,1.49752,431172.0,13713
997.113,1.49376,438051.0,14053
1000.92,1.48473,444216.0,14550
1004.72,1.50366,449307.0,14089
1008.52,1.495306,453601.0,14500
1012.32,1.49959,456801.0,14459
1016.11,1.49423,459312.0,14719
1021.15,1.50612,461643.0,14394
1024.93,1.5084,463069.0,14363
1028.71,1.5013,463868.0,14625
1032.48,1.501549,464326.0,14631
1036.24,1.49924,466001.0,14762
1040.01,1.5081,466870.0,14491
1043.77,1.51247,467033.0,14351
1047.52,1.517805,467045.0,14176
1051.27,1.52186,467467.0,14057
1055.01,1.50555,467627.0,14600
1060,1.51893,468351.0,14179
1063.74,1.52206,469050.0,14098
1067.47,1.51215,469880.0,14449
1071.19,1.507868,471228.0,14634
1074.92,1.52281,472558.0,14179
1078.63,1.50768,474087.0,14729
1082.35,1.522,476569.0,14326
1086.06,1.51755,479445.0,14561
1089.76,1.52901,481756.0,14250
1093.46,1.50693,485147.0,15099
1098.39,1.51945,489755.0,14809
1102.08,1.50453,493535.0,15445
1105.77,1.514942,497426.0,15198
1109.45,1.51185,501308.0,15426
1113.13,1.50951,505725.0,15646
1116.8,1.50407,509421.0,15959
1120.47,1.528,513217.0,15216
1124.13,1.51812,517470.0,15695
1127.79,1.51096,521690.0,16086
1131.45,1.52633,526099.0,15658
1136.32,1.52836,531329.0,15740
1139.96,1.53152,535549.0,15750
1143.61,1.52798,539808.0,16005
1147.24,1.535298,543900.0,15857
1150.88,1.53906,547908.0,15836
1154.5,1.54377,552170.0,15787
1158.13,1.54854,556773.0,15745
1161.75,1.5631,561098.0,15344
1165.36,1.55653,565898.0,15711
1168.98,1.56853,571300.0,15429
1172.58,1.568727,576602.0,15565
1177.39,1.576964,584320.0,15477
1180.98,1.58306,589396.0,15394
1184.58,1.59566,596143.0,15125
1188.16,1.592736,602955.0,15401
1191.75,1.606401,609704.0,15091
1195.33,1.60379,617215.0,15369
1198.9,1.638,624471.0,14372
1202.48,1.64995,632472.0,14161
1206.04,1.65679,640381.0,14114
1209.61,1.6637,648161.0,14060
1214.35,1.68033,659999.0,13779
1217.9,1.67166,668609.0,14240
1221.45,1.66217,677405.0,14746
1224.99,1.64637,686281.0,15493
1228.53,1.63339,695317.0,16173
1232.07,1.60336,704063.0,17549
1235.6,1.59925,713007.0,17941
1239.13,1.589439,721330.0,18565
1242.65,1.58941,730030.0,18790
1246.17,1.568919,737591.0,19902
1250.85,1.5737,746809.0,19930
1254.36,1.570478,753336.0,20254
1257.86,1.565567,759907.0,20663
1261.36,1.56258,766538.0,20987
1264.86,1.56911,774802.0,20897
1268.35,1.55731,784025.0,21728
1271.83,1.57022,794336.0,21369
1275.32,1.5615,804198.0,22073
1278.79,1.5619,813836.0,22317
1282.27,1.559057,823595.0,22733
1286.89,1.55712,834533.0,23138
1290.36,1.56534,842581.0,22923
1293.81,1.55853,849301.0,23471
1297.27,1.55117,856026.0,24061
1300.72,1.55827,862498.0,23850
1304.17,1.56178,868068.0,23811
1307.61,1.55634,872869.0,24244
1311.05,1.56257,877616.0,24029
1314.48,1.56263,881872.0,24142
1317.91,1.56107,885520.0,24329
1322.47,1.56064,888917.0,24447
1325.89,1.549,891687.0,25189
1329.31,1.55476,894001.0,24922
1332.72,1.56296,895438.0,24495
1336.12,1.55808,896641.0,24805
1339.52,1.5543,897974.0,25059
1342.92,1.55894,898777.0,24815
1346.31,1.55794,898783.0,24872
1349.7,1.57121,898350.0,24112
1353.09,1.57424,896784.0,23903
1357.59,1.57013,895293.0,24090
1360.97,1.56226,892755.0,24461
1364.34,1.57279,890430.0,23813
1367.7,1.57267,888504.0,23768
1371.06,1.58375,885825.0,23099
1374.42,1.59029,881046.0,22631
1377.77,1.5883,874030.0,22554
1381.12,1.59914,865751.0,21790
1384.47,1.62361,857799.0,20407
1387.81,1.63598,851759.0,19694
1392.25,1.64435,846500.0,19199
1395.58,1.64771,843622.0,18986
1398.91,1.64625,841228.0,18996
1402.23,1.63999,838489.0,19209
1405.55,1.63457,836065.0,19394
1408.86,1.64392,834396.0,18943
1412.17,1.65129,832187.0,18575
1415.47,1.65143,830123.0,18523
1418.77,1.65873,828244.0,18173
1422.07,1.647341,827314.0,18635
1426.45,1.6535,826435.0,18353
1429.74,1.63832,825475.0,18984
1433.02,1.64822,824938.0,18544
1436.29,1.64488,823959.0,18665
1439.57,1.648,823822.0,18528
1442.83,1.64417,823184.0,18678
1446.1,1.64403,821953.0,18656
1449.36,1.625562,821135.0,19447
1452.61,1.62134,819413.0,19596
1455.86,1.62426,817492.0,19419
1459.11,1.629528,814862.0,19123
1463.43,1.62171,811075.0,19380
1466.67,1.61981,807671.0,19383
1469.9,1.61644,803699.0,19438
1473.13,1.6111,799396.0,19573
1476.35,1.61094,795129.0,19476
1479.57,1.60602,790127.0,19574
1482.78,1.61599,784937.0,19004
1486,1.61609,779544.0,18869
1489.2,1.61794,773733.0,18649
1492.4,1.60722,767463.0,18960
1496.67,1.60022,758614.0,19046
1499.86,1.60685,751802.0,18589
1503.04,1.603,744297.0,18567
1506.23,1.60129,735980.0,18432
1509.41,1.60436,728040.0,18105
1512.58,1.6182,719703.0,17336
1515.75,1.61121,710982.0,17404
1518.92,1.598249,702409.0,17715
1522.08,1.610281,693280.0,17007
1525.24,1.60757,683935.0,16883
1529.44,1.60209,671492.0,16786
1532.59,1.61474,661352.0,16058
1535.73,1.609382,650841.0,15999
1538.87,1.60222,640156.0,15998
1542,1.60978,629036.0,15449
1545.13,1.61168,617445.0,15098
1548.26,1.60962,605527.0,14877
1551.38,1.61201,594133.0,14517
1554.49,1.60243,582894.0,14560
1557.61,1.59779,571271.0,14423
1561.75,1.596672,555940.0,14072
1564.85,1.59317,544812.0,13902
1567.95,1.58071,533402.0,14007
1571.05,1.60079,521915.0,13086
1574.14,1.59617,510788.0,12944
1577.22,1.595475,499607.0,12681
1580.3,1.60656,487992.0,12074
1583.38,1.59841,476265.0,12007
1586.45,1.59338,464618.0,11850
1589.52,1.60454,452782.0,11255
1593.6,1.60124,436897.0,10943
1596.66,1.60888,425551.0,10473
1599.71,1.59202,414191.0,10597
1602.76,1.61038,402799.0,9879
1605.81,1.60845,391352.0,9641
1608.85,1.59672,380811.0,9638
1611.89,1.61366,370076.0,9008
1614.92,1.61108,359798.0,8810
1617.95,1.62114,349165.0,8354
1620.97,1.59996,338717.0,8509
1624.99,1.59601,325435.0,8250
1628.01,1.59521,315463.0,8012
1631.02,1.60015,305570.0,7673
1634.02,1.60995,295762.0,7261
1637.02,1.58398,286306.0,7462
1640.02,1.62477,276696.0,6565
1643.01,1.59548,267004.0,6777
1646,1.59972,257531.0,6473
1648.98,1.59541,247817.0,6291
1651.96,1.60087,238547.0,5980
1655.93,1.59262,225092.0,5751
1658.89,1.634395,214425.0,4976
1661.86,1.59062,202241.0,5191
1664.82,1.60765,188046.0,4641
1667.78,1.59875,171566.0,4322
1670.73,1.54882,154101.0,4355
1673.67,1.47764,134892.0,4491
1676.62,1.60465,115325.0,2866
1679.56,1.50432,97255.0,3045
1682.49,1.4694,81017.0,2749
1686.4,1.61942,63571.0,1527
1689.32,1.51246,53566.0,1646
1692.24,1.63552,45493.0,1053
1695.16,1.46121,39217.0,1356
1698.07,1.68794,33537.0,688
1700.97,1.4694,29118.0,988

File: LLDPE10_Column 1_20211230_113639.csv
***Scan Config Information***,,,,,,,***Reference Scan Information***,,,,,,,,
Scan Config Name:,Column 1,,,,,,Scan Config Name:,Built-in Factory Reference,,,,,,
Scan Config Type:,Slew,Num Section:,1,,,,Scan Config Type:,Slew,Num Section:,1,,,,,
Section Config Type:,Column,,,,,,Section Config Type:,Column,,,,,,,
Start Wavelength (nm):,900,,,,,,Start Wavelength (nm):,900.0,,,,,,
End Wavelength (nm):,1700,,,,,,End Wavelength (nm):,1700.0,,,,,,
Pattern Width (nm):,7.03,,,,,,Pattern Width (nm):,7.03,,,,,,,
Exposure (ms):,0.635,,,,,,Exposure (ms):,0.635,,,,,,,
Digital Resolution:,228,,,,,,Digital Resolution:,228,,,,,,,
Num Repeats:,6,,,,,,Num Repeats:,30,,,,,,,
PGA Gain:,64,,,,,,PGA Gain:,64,,,,,,
System Temp (C):,30.07,,,,,,System Temp (C):,24.17,,,,,,,
Humidity (%):,36.66,,,,,,Humidity (%):,30.0,,,,,,
Battery Capacity (%):,54,,,,,,Lamp Intensity:,2449,,,,,,,
Lamp Intensity:,2611,,,,,,Data Date-Time:,19/12/12T12:44:54,,,,,,
Data Date-Time:,18/1/1T7:15:58,,,,,,,,,,,,,,
Total Measurement Time in sec:,4.177,,,,,,,,,,,,,
***General Information***,,,,,,,***Calibration Coefficients***,,,,,,,,
Model Name:,NIR-S-G1,,,,,,Shift Vector Coefficients:,-8.44101,0.0554567,-8.45244e-05,,,,,
Serial Number:,947R055,95UB122GC0A947R055,,,,,Pixel to Wavelength Coefficients:,1795.87,-0.92014,-0.00023961,,,,,
APP Version:,2.16.7,,,,,,,,,,,,,
TIVA Version:,2.4.4,,,,,,***Lamp Usage * **,,,,,,,,
UUID:,de:67:c:88:67:2c:2d:21,,,,,,Total Time(HH:MM:SS):,13min 58sec ,,,,,,,
Main Board Version:,D,,,,,,***Device/Error Status***,,,,,,,,
Detector Board Version:,B,,,,,,Device Status:,0x00000031,,,,,,
,,,,,,,Error status:,0x00000000,Error Code:,0x00000000000000000000000000000000,,,,,
,,,,,,,,,Error Details:,Not Found,,,,,
***Scan Data***,,,,,,,,,,,,,,,
Wavelength (nm),Absorbance (AU),Reference Signal (unitless),Sample Signal (unitless)
901.841,1.56625,99968.0,2714
905.754,1.52726,108993.0,3237
909.663,1.52295,118185.0,3545
913.568,1.51254,129285.0,3972
917.469,1.58062,143347.0,3765
921.365,1.57264,160437.0,4292
925.257,1.58337,180387.0,4708
929.144,1.57878,201426.0,5313
933.028,1.537,220694.0,6409
936.906,1.55232,237501.0,6658
942.072,1.57588,256956.0,6823
945.94,1.56374,270636.0,7390
949.805,1.53972,283621.0,8185
953.665,1.53481,296982.0,8668
957.521,1.54613,310733.0,8836
961.373,1.550575,324587.0,9136
965.22,1.525883,339205.0,10106
969.063,1.51784,353669.0,10734
972.902,1.52634,368253.0,10960
976.736,1.55049,382531.0,10769
981.842,1.54277,399901.0,11460
985.666,1.53871,411528.0,11904
989.486,1.52777,422199.0,12524
993.302,1.53394,431172.0,12610
997.113,1.53584,438051.0,12755
1000.92,1.52561,444216.0,13243
1004.72,1.53753,449307.0,13032
1008.52,1.52847,453601.0,13434
1012.32,1.52875,456801.0,13520
1016.11,1.5493,459312.0,12966
1021.15,1.53465,461643.0,13479
1024.93,1.52937,463069.0,13686
1028.71,1.53487,463868.0,13537
1032.48,1.54714,464326.0,13173
1036.24,1.551215,466001.0,13097
1040.01,1.53665,466870.0,13569
1043.77,1.54147,467033.0,13424
1047.52,1.54349,467045.0,13362
1051.27,1.55188,467467.0,13118
1055.01,1.54361,467627.0,13375
1060,1.5535,468351.0,13094
1063.74,1.54877,469050.0,13257
1067.47,1.55624,469880.0,13054
1071.19,1.54655,471228.0,13387
1074.92,1.53266,472558.0,13861
1078.63,1.554528,474087.0,13223
1082.35,1.55884,476569.0,13161
1086.06,1.55412,479445.0,13385
1089.76,1.56058,481756.0,13251
1093.46,1.55951,485147.0,13377
1098.39,1.55916,489755.0,13515
1102.08,1.566116,493535.0,13403
1105.77,1.565816,497426.0,13518
1109.45,1.5519,501308.0,14067
1113.13,1.56397,505725.0,13802
1116.8,1.56969,509421.0,13721
1120.47,1.53931,513217.0,14825
1124.13,1.56236,517470.0,14175
1127.79,1.564177,521690.0,14231
1131.45,1.57862,526099.0,13882
1136.32,1.573963,531329.0,14171
1139.96,1.57517,535549.0,14244
1143.61,1.57123,539808.0,14488
1147.24,1.58458,543900.0,14156
1150.88,1.5777,547908.0,14488
1154.5,1.58817,552170.0,14253
1158.13,1.59986,556773.0,13990
1161.75,1.59663,561098.0,14204
1165.36,1.60788,565898.0,13959
1168.98,1.60396,571300.0,14220
1172.58,1.61524,576602.0,13984
1177.39,1.62121,584320.0,13978
1180.98,1.62802,589396.0,13880
1184.58,1.638028,596143.0,13719
1188.16,1.63134,602955.0,14091
1191.75,1.64358,609704.0,13853
1195.33,1.6546,617215.0,13672
1198.9,1.6729,624471.0,13262
1202.48,1.71486,632472.0,12195
1206.04,1.71523,640381.0,12337
1209.61,1.72245,648161.0,12281
1214.35,1.72518,659999.0,12427
1217.9,1.71671,668609.0,12837
1221.45,1.70391,677405.0,13395
1224.99,1.68575,686281.0,14150
1228.53,1.66534,695317.0,15026
1232.07,1.64292,704063.0,16021
1235.6,1.64444,713007.0,16168
1239.13,1.64824,721330.0,16214
1242.65,1.624868,730030.0,17317
1246.17,1.62421,737591.0,17523
1250.85,1.6099,746809.0,18336
1254.36,1.623869,753336.0,17911
1257.86,1.60799,759907.0,18740
1261.36,1.61372,766538.0,18656
1264.86,1.61257,774802.0,18907
1268.35,1.61366,784025.0,19084
1271.83,1.607261,794336.0,19622
1275.32,1.60279,804198.0,20071
1278.79,1.606305,813836.0,20148
1282.27,1.61088,823595.0,20176
1286.89,1.61016,834533.0,20478
1290.36,1.60362,842581.0,20989
1293.81,1.61183,849301.0,20760
1297.27,1.60566,856026.0,21224
1300.72,1.60036,862498.0,21647
1304.17,1.60875,868068.0,21370
1307.61,1.60601,872869.0,21624
1311.05,1.6026,877616.0,21913
1314.48,1.609146,881872.0,21690
1317.91,1.60658,885520.0,21909
1322.47,1.6077,888917.0,21936
1325.89,1.60763,891687.0,22008
1329.31,1.60534,894001.0,22182
1332.72,1.60389,895438.0,22292
1336.12,1.60956,896641.0,22032
1339.52,1.60539,897974.0,22278
1342.92,1.60714,898777.0,22208
1346.31,1.616615,898783.0,21729
1349.7,1.60101,898350.0,22513
1353.09,1.61447,896784.0,21788
1357.59,1.61589,895293.0,21681
1360.97,1.618415,892755.0,21494
1364.34,1.62308,890430.0,21209
1367.7,1.62469,888504.0,21085
1371.06,1.63443,885825.0,20555
1374.42,1.64473,881046.0,19965
1377.77,1.64954,874030.0,19588
1381.12,1.64132,865751.0,19773
1384.47,1.66462,857799.0,18568
1387.81,1.67712,851759.0,17914
1392.25,1.6888,846500.0,17331
1395.58,1.69731,843622.0,16937
1398.91,1.690751,841228.0,17146
1402.23,1.68185,838489.0,17444
1405.55,1.67451,836065.0,17690
1408.86,1.67799,834396.0,17514
1412.17,1.70116,832187.0,16560
1415.47,1.69708,830123.0,16675
1418.77,1.70507,828244.0,16334
1422.07,1.70816,827314.0,16200
1426.45,1.69663,826435.0,16618
1429.74,1.69917,825475.0,16502
1433.02,1.70245,824938.0,16367
1436.29,1.70106,823959.0,16400
1439.57,1.69648,823822.0,16571
1442.83,1.68985,823184.0,16813
1446.1,1.68542,821953.0,16960
1449.36,1.68099,821135.0,17117
1452.61,1.681804,819413.0,17049
1455.86,1.68635,817492.0,16832
1459.11,1.67614,814862.0,17177
1463.43,1.67774,811075.0,17034
1466.67,1.658232,807671.0,17742
1469.9,1.65754,803699.0,17683
1473.13,1.64749,799396.0,18000
1476.35,1.66287,795129.0,17281
1479.57,1.66066,790127.0,17260
1482.78,1.65984,784937.0,17179
1486,1.65796,779544.0,17135
1489.2,1.6594,773733.0,16951
1492.4,1.66032,767463.0,16778
1496.67,1.65905,758614.0,16633
1499.86,1.65245,751802.0,16736
1503.04,1.64685,744297.0,16784
1506.23,1.64912,735980.0,16510
1509.41,1.65029,728040.0,16288
1512.58,1.65486,719703.0,15933
1515.75,1.66722,710982.0,15298
1518.92,1.65133,702409.0,15677
1522.08,1.6663,693280.0,14949
1525.24,1.6563,683935.0,15091
1529.44,1.664,671492.0,14556
1532.59,1.6743,661352.0,14000
1535.73,1.669555,650841.0,13929
1538.87,1.66597,640156.0,13814
1542,1.65582,629036.0,13895
1545.13,1.65805,617445.0,13569
1548.26,1.6575,605527.0,13324
1551.38,1.65315,594133.0,13205
1554.49,1.66039,582894.0,12741
1557.61,1.64848,571271.0,12834
1561.75,1.64979,555940.0,12452
1564.85,1.66444,544812.0,11798
1567.95,1.66436,533402.0,11553
1571.05,1.657053,521915.0,11496
1574.14,1.65674,510788.0,11259
1577.22,1.65159,499607.0,11144
1580.3,1.66066,487992.0,10660
1583.38,1.66535,476265.0,10292
1586.45,1.63731,464618.0,10710
1589.52,1.66515,452782.0,9789
1593.6,1.663754,436897.0,9476
1596.66,1.66389,425551.0,9227
1599.71,1.66296,414191.0,9000
1602.76,1.65172,402799.0,8982
1605.81,1.6701,391352.0,8365
1608.85,1.65856,380811.0,8359
1611.89,1.65538,370076.0,8183
1614.92,1.64448,359798.0,8158
1617.95,1.67122,349165.0,7444
1620.97,1.64754,338717.0,7626
1624.99,1.657248,325435.0,7165
1628.01,1.64861,315463.0,7085
1631.02,1.62941,305570.0,7173
1634.02,1.651,295762.0,6606
1637.02,1.65194,286306.0,6381
1640.02,1.66961,276696.0,5921
1643.01,1.65142,267004.0,5958
1646,1.66552,257531.0,5563
1648.98,1.67938,247817.0,5185
1651.96,1.67826,238547.0,5004
1655.93,1.66913,225092.0,4822
1658.89,1.68477,214425.0,4431
1661.86,1.65947,202241.0,4430
1664.82,1.6226,188046.0,4484
1667.78,1.60809,171566.0,4230
1670.73,1.63078,154101.0,3606
1673.67,1.59166,134892.0,3454
1676.62,1.66747,115325.0,2480
1679.56,1.536279,97255.0,2829
1682.49,1.57372,81017.0,2162
1686.4,1.57537,63571.0,1690
1689.32,1.68474,53566.0,1107
1692.24,1.69795,45493.0,912
1695.16,1.74344,39217.0,708
1698.07,1.55009,33537.0,945
1700.97,1.89831,29118.0,368