Folder: Dorgan_Laubach_Research/Data/PP (part 7)

File: PP13_Column 1_20211230_113105.csv
***Scan Config Information***,,,,,,,***Reference Scan Information***,,,,,,,,
Scan Config Name:,Column 1,,,,,,Scan Config Name:,Built-in Factory Reference,,,,,,
Scan Config Type:,Slew,Num Section:,1,,,,Scan Config Type:,Slew,Num Section:,1,,,,,
Section Config Type:,Column,,,,,,Section Config Type:,Column,,,,,,,
Start Wavelength (nm):,900,,,,,,Start Wavelength (nm):,900.0,,,,,,
End Wavelength (nm):,1700,,,,,,End Wavelength (nm):,1700.0,,,,,,
Pattern Width (nm):,7.03,,,,,,Pattern Width (nm):,7.03,,,,,,,
Exposure (ms):,0.635,,,,,,Exposure (ms):,0.635,,,,,,,
Digital Resolution:,228,,,,,,Digital Resolution:,228,,,,,,,
Num Repeats:,6,,,,,,Num Repeats:,30,,,,,,,
PGA Gain:,64,,,,,,PGA Gain:,64,,,,,,
System Temp (C):,27.18,,,,,,System Temp (C):,24.17,,,,,,,
Humidity (%):,38.66,,,,,,Humidity (%):,30.0,,,,,,
Battery Capacity (%):,56,,,,,,Lamp Intensity:,2449,,,,,,,
Lamp Intensity:,2561,,,,,,Data Date-Time:,19/12/12T12:44:54,,,,,,
Data Date-Time:,18/1/1T7:10:24,,,,,,,,,,,,,,
Total Measurement Time in sec:,4.251,,,,,,,,,,,,,
***General Information***,,,,,,,***Calibration Coefficients***,,,,,,,,
Model Name:,NIR-S-G1,,,,,,Shift Vector Coefficients:,-8.44101,0.0554567,-8.45244e-05,,,,,
Serial Number:,947R055,95UB122GC0A947R055,,,,,Pixel to Wavelength Coefficients:,1795.87,-0.92014,-0.00023961,,,,,
APP Version:,2.16.7,,,,,,,,,,,,,
TIVA Version:,2.4.4,,,,,,***Lamp Usage * **,,,,,,,,
UUID:,de:67:c:88:67:2c:2d:21,,,,,,Total Time(HH:MM:SS):,13min 18sec ,,,,,,,
Main Board Version:,D,,,,,,***Device/Error Status***,,,,,,,,
Detector Board Version:,B,,,,,,Device Status:,0x00000031,,,,,,
,,,,,,,Error status:,0x00000000,Error Code:,0x00000000000000000000000000000000,,,,,
,,,,,,,,,Error Details:,Not Found,,,,,
***Scan Data***,,,,,,,,,,,,,,,
Wavelength (nm),Absorbance (AU),Reference Signal (unitless),Sample Signal (unitless)
901.841,1.379829,99968.0,4169
905.754,1.411161,108993.0,4229
909.663,1.38441,118185.0,4877
913.568,1.39613,129285.0,5193
917.469,1.42893,143347.0,5339
921.365,1.4134,160437.0,6193
925.257,1.407339,180387.0,7061
929.144,1.42256,201426.0,7613
933.028,1.41066,220694.0,8573
936.906,1.43217,237501.0,8780
942.072,1.41488,256956.0,9885
945.94,1.39592,270636.0,10876
949.805,1.41523,283621.0,10902
953.665,1.41267,296982.0,11483
957.521,1.417571,310733.0,11880
961.373,1.3992,324587.0,12946
965.22,1.40651,339205.0,13303
969.063,1.4085,353669.0,13807
972.902,1.418872,368253.0,14037
976.736,1.4147,382531.0,14722
981.842,1.41477,399901.0,15388
985.666,1.4086,411528.0,16062
989.486,1.40788,422199.0,16506
993.302,1.41173,431172.0,16708
997.113,1.41852,438051.0,16711
1000.92,1.41151,444216.0,17222
1004.72,1.42051,449307.0,17062
1008.52,1.41104,453601.0,17605
1012.32,1.42161,456801.0,17303
1016.11,1.41401,459312.0,17705
1021.15,1.42318,461643.0,17423
1024.93,1.40684,463069.0,18147
1028.71,1.41294,463868.0,17925
1032.48,1.4264,464326.0,17395
1036.24,1.42642,466001.0,17457
1040.01,1.41068,466870.0,18135
1043.77,1.41795,467033.0,17840
1047.52,1.43001,467045.0,17352
1051.27,1.40564,467467.0,18370
1055.01,1.412197,467627.0,18101
1060,1.42706,468351.0,17519
1063.74,1.42548,469050.0,17609
1067.47,1.42734,469880.0,17565
1071.19,1.42423,471228.0,17742
1074.92,1.42102,472558.0,17924
1078.63,1.41969,474087.0,18037
1082.35,1.42844,476569.0,17770
1086.06,1.42718,479445.0,17929
1089.76,1.41481,481756.0,18536
1093.46,1.43237,485147.0,17927
1098.39,1.41795,489755.0,18708
1102.08,1.41886,493535.0,18813
1105.77,1.43561,497426.0,18244
1109.45,1.41985,501308.0,19066
1113.13,1.42279,505725.0,19104
1116.8,1.43364,509421.0,18769
1120.47,1.431022,513217.0,19023
1124.13,1.427,517470.0,19359
1127.79,1.42782,521690.0,19480
1131.45,1.43926,526099.0,19134
1136.32,1.43873,531329.0,19348
1139.96,1.43511,535549.0,19665
1143.61,1.451752,539808.0,19076
1147.24,1.4487,543900.0,19356
1150.88,1.45843,547908.0,19067
1154.5,1.46621,552170.0,18874
1158.13,1.46899,556773.0,18910
1161.75,1.46876,561098.0,19067
1165.36,1.482572,565898.0,18628
1168.98,1.48521,571300.0,18692
1172.58,1.49003,576602.0,18657
1177.39,1.50532,584320.0,18253
1180.98,1.52658,589396.0,17532
1184.58,1.534,596143.0,17432
1188.16,1.543219,602955.0,17261
1191.75,1.55207,609704.0,17102
1195.33,1.56832,617215.0,16677
1198.9,1.55133,624471.0,17546
1202.48,1.54671,632472.0,17961
1206.04,1.54694,640381.0,18176
1209.61,1.53928,648161.0,18724
1214.35,1.55054,659999.0,18578
1217.9,1.5421,668609.0,19190
1221.45,1.53104,677405.0,19944
1224.99,1.518752,686281.0,20785
1228.53,1.51167,695317.0,21405
1232.07,1.494234,704063.0,22562
1235.6,1.48796,713007.0,23181
1239.13,1.479282,721330.0,23925
1242.65,1.47361,730030.0,24532
1246.17,1.46949,737591.0,25022
1250.85,1.462466,746809.0,25748
1254.36,1.462099,753336.0,25995
1257.86,1.46258,759907.0,26193
1261.36,1.45788,766538.0,26709
1264.86,1.45219,774802.0,27353
1268.35,1.45685,784025.0,27383
1271.83,1.45571,794336.0,27816
1275.32,1.45327,804198.0,28320
1278.79,1.45098,813836.0,28811
1282.27,1.4521,823595.0,29081
1286.89,1.44766,834533.0,29770
1290.36,1.45145,842581.0,29796
1293.81,1.45236,849301.0,29971
1297.27,1.45311,856026.0,30156
1300.72,1.44701,862498.0,30814
1304.17,1.44113,868068.0,31436
1307.61,1.44861,872869.0,31070
1311.05,1.44797,877616.0,31285
1314.48,1.44992,881872.0,31296
1317.91,1.45321,885520.0,31188
1322.47,1.44234,888917.0,32101
1325.89,1.44747,891687.0,31823
1329.31,1.4476,894001.0,31896
1332.72,1.449076,895438.0,31839
1336.12,1.45359,896641.0,31552
1339.52,1.45468,897974.0,31520
1342.92,1.45501,898777.0,31524
1346.31,1.45221,898783.0,31728
1349.7,1.46179,898350.0,31021
1353.09,1.46789,896784.0,30535
1357.59,1.48023,895293.0,29630
1360.97,1.48708,892755.0,29084
1364.34,1.500322,890430.0,28137
1367.7,1.50242,888504.0,27941
1371.06,1.504085,885825.0,27750
1374.42,1.51638,881046.0,26830
1377.77,1.523872,874030.0,26161
1381.12,1.5328,865751.0,25386
1384.47,1.53948,857799.0,24769
1387.81,1.54706,851759.0,24169
1392.25,1.544548,846500.0,24159
1395.58,1.56081,843622.0,23192
1398.91,1.55206,841228.0,23597
1402.23,1.53595,838489.0,24409
1405.55,1.54111,836065.0,24051
1408.86,1.53954,834396.0,24090
1412.17,1.53981,832187.0,24011
1415.47,1.54013,830123.0,23934
1418.77,1.5296,828244.0,24466
1422.07,1.52696,827314.0,24587
1426.45,1.520957,826435.0,24903
1429.74,1.527928,825475.0,24478
1433.02,1.5223,824938.0,24781
1436.29,1.52147,823959.0,24799
1439.57,1.51942,823822.0,24912
1442.83,1.51789,823184.0,24981
1446.1,1.51053,821953.0,25370
1449.36,1.51381,821135.0,25154
1452.61,1.49896,819413.0,25974
1455.86,1.50357,817492.0,25640
1459.11,1.49768,814862.0,25906
1463.43,1.49774,811075.0,25782
1466.67,1.49393,807671.0,25900
1469.9,1.49263,803699.0,25850
1473.13,1.49515,799396.0,25563
1476.35,1.48682,795129.0,25919
1479.57,1.49005,790127.0,25565
1482.78,1.492367,784937.0,25262
1486,1.47945,779544.0,25846
1489.2,1.49142,773733.0,24956
1492.4,1.49008,767463.0,24830
1496.67,1.48475,758614.0,24847
1499.86,1.48422,751802.0,24654
1503.04,1.48143,744297.0,24565
1506.23,1.48599,735980.0,24037
1509.41,1.474463,728040.0,24417
1512.58,1.47119,719703.0,24320
1515.75,1.46919,710982.0,24136
1518.92,1.47482,702409.0,23538
1522.08,1.46842,693280.0,23577
1525.24,1.46432,683935.0,23480
1529.44,1.46064,671492.0,23249
1532.59,1.45961,661352.0,22952
1535.73,1.46663,650841.0,22225
1538.87,1.46424,640156.0,21981
1542,1.45724,629036.0,21950
1545.13,1.46299,617445.0,21262
1548.26,1.464948,605527.0,20758
1551.38,1.47073,594133.0,20098
1554.49,1.45914,582894.0,20251
1557.61,1.45573,571271.0,20004
1561.75,1.46003,555940.0,19275
1564.85,1.45628,544812.0,19053
1567.95,1.46643,533402.0,18223
1571.05,1.4687,521915.0,17738
1574.14,1.462432,510788.0,17612
1577.22,1.46782,499607.0,17014
1580.3,1.466451,487992.0,16671
1583.38,1.45743,476265.0,16612
1586.45,1.47303,464618.0,15634
1589.52,1.46304,452782.0,15590
1593.6,1.46936,436897.0,14826
1596.66,1.46394,425551.0,14622
1599.71,1.46117,414191.0,14323
1602.76,1.469161,402799.0,13675
1605.81,1.46475,391352.0,13422
1608.85,1.477282,380811.0,12689
1611.89,1.47747,370076.0,12326
1614.92,1.473884,359798.0,12083
1617.95,1.46858,349165.0,11870
1620.97,1.4862,338717.0,11057
1624.99,1.50472,325435.0,10180
1628.01,1.484722,315463.0,10333
1631.02,1.48602,305570.0,9979
1634.02,1.474781,295762.0,9912
1637.02,1.50158,286306.0,9021
1640.02,1.48172,276696.0,9126
1643.01,1.49582,267004.0,8525
1646,1.51474,257531.0,7872
1648.98,1.48351,247817.0,8140
1651.96,1.47329,238547.0,8022
1655.93,1.4784,225092.0,7481
1658.89,1.48222,214425.0,7064
1661.86,1.48527,202241.0,6616
1664.82,1.495462,188046.0,6009
1667.78,1.46683,171566.0,5856
1670.73,1.46157,154101.0,5324
1673.67,1.457242,134892.0,4707
1676.62,1.45063,115325.0,4086
1679.56,1.44112,97255.0,3522
1682.49,1.48386,81017.0,2659
1686.4,1.47733,63571.0,2118
1689.32,1.542498,53566.0,1536
1692.24,1.64049,45493.0,1041
1695.16,1.62921,39217.0,921
1698.07,1.83004,33537.0,496
1700.97,2.572067,29118.0,78

File: PP14_Column 1_20211230_113120.csv
***Scan Config Information***,,,,,,,***Reference Scan Information***,,,,,,,,
Scan Config Name:,Column 1,,,,,,Scan Config Name:,Built-in Factory Reference,,,,,,
Scan Config Type:,Slew,Num Section:,1,,,,Scan Config Type:,Slew,Num Section:,1,,,,,
Section Config Type:,Column,,,,,,Section Config Type:,Column,,,,,,,
Start Wavelength (nm):,900,,,,,,Start Wavelength (nm):,900.0,,,,,,
End Wavelength (nm):,1700,,,,,,End Wavelength (nm):,1700.0,,,,,,
Pattern Width (nm):,7.03,,,,,,Pattern Width (nm):,7.03,,,,,,,
Exposure (ms):,0.635,,,,,,Exposure (ms):,0.635,,,,,,,
Digital Resolution:,228,,,,,,Digital Resolution:,228,,,,,,,
Num Repeats:,6,,,,,,Num Repeats:,30,,,,,,,
PGA Gain:,64,,,,,,PGA Gain:,64,,,,,,
System Temp (C):,27.33,,,,,,System Temp (C):,24.17,,,,,,,
Humidity (%):,38.51,,,,,,Humidity (%):,30.0,,,,,,
Battery Capacity (%):,56,,,,,,Lamp Intensity:,2449,,,,,,,
Lamp Intensity:,2564,,,,,,Data Date-Time:,19/12/12T12:44:54,,,,,,
Data Date-Time:,18/1/1T7:10:39,,,,,,,,,,,,,,
Total Measurement Time in sec:,4.564,,,,,,,,,,,,,
***General Information***,,,,,,,***Calibration Coefficients***,,,,,,,,
Model Name:,NIR-S-G1,,,,,,Shift Vector Coefficients:,-8.44101,0.0554567,-8.45244e-05,,,,,
Serial Number:,947R055,95UB122GC0A947R055,,,,,Pixel to Wavelength Coefficients:,1795.87,-0.92014,-0.00023961,,,,,
APP Version:,2.16.7,,,,,,,,,,,,,
TIVA Version:,2.4.4,,,,,,***Lamp Usage * **,,,,,,,,
UUID:,de:67:c:88:67:2c:2d:21,,,,,,Total Time(HH:MM:SS):,13min 21sec ,,,,,,,
Main Board Version:,D,,,,,,***Device/Error Status***,,,,,,,,
Detector Board Version:,B,,,,,,Device Status:,0x00000031,,,,,,
,,,,,,,Error status:,0x00000000,Error Code:,0x00000000000000000000000000000000,,,,,
,,,,,,,,,Error Details:,Not Found,,,,,
***Scan Data***,,,,,,,,,,,,,,,
Wavelength (nm),Absorbance (AU),Reference Signal (unitless),Sample Signal (unitless)
901.841,1.69301,99968.0,2027
905.754,1.59602,108993.0,2763
909.663,1.61197,118185.0,2888
913.568,1.6045,129285.0,3214
917.469,1.62811,143347.0,3375
921.365,1.58946,160437.0,4129
925.257,1.65436,180387.0,3998
929.144,1.65624,201426.0,4445
933.028,1.603191,220694.0,5503
936.906,1.63075,237501.0,5558
942.072,1.5917,256956.0,6579
945.94,1.59222,270636.0,6921
949.805,1.59366,283621.0,7229
953.665,1.60893,296982.0,7308
957.521,1.62386,310733.0,7388
961.373,1.59293,324587.0,8287
965.22,1.58662,339205.0,8787
969.063,1.60175,353669.0,8848
972.902,1.57545,368253.0,9788
976.736,1.594911,382531.0,9722
981.842,1.5957,399901.0,10145
985.666,1.58025,411528.0,10818
989.486,1.60222,422199.0,10551
993.302,1.59342,431172.0,10996
997.113,1.58432,438051.0,11408
1000.92,1.58426,444216.0,11570
1004.72,1.60127,449307.0,11253
1008.52,1.59192,453601.0,11608
1012.32,1.59805,456801.0,11526
1016.11,1.58861,459312.0,11844
1021.15,1.61734,461643.0,11142
1024.93,1.60051,463069.0,11618
1028.71,1.602311,463868.0,11590
1032.48,1.60001,464326.0,11663
1036.24,1.60348,466001.0,11612
1040.01,1.60534,466870.0,11584
1043.77,1.59552,467033.0,11853
1047.52,1.59814,467045.0,11782
1051.27,1.60034,467467.0,11733
1055.01,1.6141,467627.0,11371
1060,1.6147,468351.0,11373
1063.74,1.60977,469050.0,11520
1067.47,1.59735,469880.0,11875
1071.19,1.60198,471228.0,11783
1074.92,1.61538,472558.0,11457
1078.63,1.59207,474087.0,12128
1082.35,1.61191,476569.0,11647
1086.06,1.59878,479445.0,12077
1089.76,1.6204,481756.0,11546
1093.46,1.61362,485147.0,11810
1098.39,1.60437,489755.0,12179
1102.08,1.600878,493535.0,12372
1105.77,1.597981,497426.0,12553
1109.45,1.61991,501308.0,12028
1113.13,1.61465,505725.0,12282
1116.8,1.588085,509421.0,13152
1120.47,1.6078,513217.0,12662
1124.13,1.604678,517470.0,12859
1127.79,1.618665,521690.0,12553
1131.45,1.61805,526099.0,12677
1136.32,1.62115,531329.0,12712
1139.96,1.6174,535549.0,12924
1143.61,1.62785,539808.0,12717
1147.24,1.63474,543900.0,12612
1150.88,1.6392,547908.0,12575
1154.5,1.64433,552170.0,12524
1158.13,1.64123,556773.0,12719
1161.75,1.66672,561098.0,12087
1165.36,1.66606,565898.0,12209
1168.98,1.6709,571300.0,12189
1172.58,1.66435,576602.0,12489
1177.39,1.68437,584320.0,12086
1180.98,1.70037,589396.0,11750
1184.58,1.71179,596143.0,11576
1188.16,1.73169,602955.0,11184
1191.75,1.72997,609704.0,11354
1195.33,1.73034,617215.0,11484
1198.9,1.71702,624471.0,11981
1202.48,1.724,632472.0,11941
1206.04,1.71523,640381.0,12337
1209.61,1.70498,648161.0,12785
1214.35,1.72052,659999.0,12561
1217.9,1.71408,668609.0,12915
1221.45,1.70061,677405.0,13497
1224.99,1.68948,686281.0,14029
1228.53,1.668676,695317.0,14911
1232.07,1.66128,704063.0,15358
1235.6,1.656365,713007.0,15730
1239.13,1.66398,721330.0,15637
1242.65,1.65955,730030.0,15988
1246.17,1.652416,737591.0,16421
1250.85,1.64625,746809.0,16864
1254.36,1.64488,753336.0,17065
1257.86,1.63688,759907.0,17534
1261.36,1.63556,766538.0,17741
1264.86,1.64178,774802.0,17677
1268.35,1.64364,784025.0,17811
1271.83,1.629372,794336.0,18648
1275.32,1.629246,804198.0,18885
1278.79,1.63497,813836.0,18861
1282.27,1.63072,823595.0,19275
1286.89,1.62224,834533.0,19916
1290.36,1.629627,842581.0,19769
1293.81,1.62664,849301.0,20064
1297.27,1.63159,856026.0,19994
1300.72,1.62938,862498.0,20248
1304.17,1.62427,868068.0,20620
1307.61,1.6326,872869.0,20340
1311.05,1.63132,877616.0,20511
1314.48,1.63752,881872.0,20318
1317.91,1.62409,885520.0,21043
1322.47,1.62807,888917.0,20931
1325.89,1.63015,891687.0,20896
1329.31,1.62771,894001.0,21068
1332.72,1.62309,895438.0,21328
1336.12,1.622286,896641.0,21396
1339.52,1.63055,897974.0,21024
1342.92,1.637367,898777.0,20715
1346.31,1.640294,898783.0,20576
1349.7,1.63691,898350.0,20727
1353.09,1.65086,896784.0,20037
1357.59,1.65539,895293.0,19796
1360.97,1.65459,892755.0,19776
1364.34,1.67259,890430.0,18924
1367.7,1.66651,888504.0,19149
1371.06,1.68485,885825.0,18302
1374.42,1.689,881046.0,18030
1377.77,1.69255,874030.0,17741
1381.12,1.71139,865751.0,16827
1384.47,1.70953,857799.0,16744
1387.81,1.71434,851759.0,16443
1392.25,1.712439,846500.0,16413
1395.58,1.73386,843622.0,15570
1398.91,1.72799,841228.0,15737
1402.23,1.70654,838489.0,16480
1405.55,1.70753,836065.0,16395
1408.86,1.70714,834396.0,16377
1412.17,1.70166,832187.0,16541
1415.47,1.70664,830123.0,16312
1418.77,1.69638,828244.0,16664
1422.07,1.70161,827314.0,16446
1426.45,1.6959,826435.0,16646
1429.74,1.70035,825475.0,16457
1433.02,1.6961,824938.0,16608
1436.29,1.70316,823959.0,16321
1439.57,1.692675,823822.0,16717
1442.83,1.68605,823184.0,16961
1446.1,1.69068,821953.0,16756
1449.36,1.688253,821135.0,16833
1452.61,1.68454,819413.0,16942
1455.86,1.67759,817492.0,17175
1459.11,1.68143,814862.0,16969
1463.43,1.673255,811075.0,17211
1466.67,1.67085,807671.0,17234
1469.9,1.67078,803699.0,17152
1473.13,1.67216,799396.0,17006
1476.35,1.67394,795129.0,16846
1479.57,1.675579,790127.0,16677
1482.78,1.67168,784937.0,16717
1486,1.66485,779544.0,16865
1489.2,1.67016,773733.0,16536
1492.4,1.67058,767463.0,16386
1496.67,1.67075,758614.0,16191
1499.86,1.66998,751802.0,16074
1503.04,1.66651,744297.0,16041
1506.23,1.65601,735980.0,16250
1509.41,1.663086,728040.0,15815
1512.58,1.65103,719703.0,16074
1515.75,1.66686,710982.0,15311
1518.92,1.6573,702409.0,15463
1522.08,1.657468,693280.0,15256
1525.24,1.65635,683935.0,15089
1529.44,1.641697,671492.0,15323
1532.59,1.664338,661352.0,14325
1535.73,1.65544,650841.0,14389
1538.87,1.64471,640156.0,14507
1542,1.64912,629036.0,14111
1545.13,1.6499,617445.0,13826
1548.26,1.64828,605527.0,13610
1551.38,1.656016,594133.0,13118
1554.49,1.63696,582894.0,13447
1557.61,1.6414,571271.0,13045
1561.75,1.64659,555940.0,12544
1564.85,1.64673,544812.0,12289
1567.95,1.63949,533402.0,12234
1571.05,1.66153,521915.0,11378
1574.14,1.64281,510788.0,11626
1577.22,1.65026,499607.0,11178
1580.3,1.63978,487992.0,11185
1583.38,1.641779,476265.0,10866
1586.45,1.65794,464618.0,10213
1589.52,1.65619,452782.0,9993
1593.6,1.66957,436897.0,9350
1596.66,1.64402,425551.0,9659
1599.71,1.640759,414191.0,9472
1602.76,1.64177,402799.0,9190
1605.81,1.66248,391352.0,8513
1608.85,1.656844,380811.0,8392
1611.89,1.66309,370076.0,8039
1614.92,1.64341,359798.0,8178
1617.95,1.649269,349165.0,7830
1620.97,1.6464,338717.0,7646
1624.99,1.67823,325435.0,6827
1628.01,1.64071,315463.0,7215
1631.02,1.66517,305570.0,6606
1634.02,1.68647,295762.0,6088
1637.02,1.70225,286306.0,5683
1640.02,1.67425,276696.0,5858
1643.01,1.66579,267004.0,5764
1646,1.70114,257531.0,5125
1648.98,1.66667,247817.0,5339
1651.96,1.67394,238547.0,5054
1655.93,1.67971,225092.0,4706
1658.89,1.636758,214425.0,4949
1661.86,1.64624,202241.0,4567
1664.82,1.63348,188046.0,4373
1667.78,1.7018,171566.0,3409
1670.73,1.67379,154101.0,3266
1673.67,1.68454,134892.0,2789
1676.62,1.64296,115325.0,2624
1679.56,1.64019,97255.0,2227
1682.49,1.67128,81017.0,1727
1686.4,1.60598,63571.0,1575
1689.32,1.96173,53566.0,585
1692.24,1.828,45493.0,676
1695.16,1.82558,39217.0,586
1698.07,NaN,33537.0,-77
1700.97,1.87983,29118.0,384