Folder: Dorgan_Laubach_Research/Data/PP (part 6)

File: PP11_Column 1_20211230_113037.csv
***Scan Config Information***,,,,,,,***Reference Scan Information***,,,,,,,,
Scan Config Name:,Column 1,,,,,,Scan Config Name:,Built-in Factory Reference,,,,,,
Scan Config Type:,Slew,Num Section:,1,,,,Scan Config Type:,Slew,Num Section:,1,,,,,
Section Config Type:,Column,,,,,,Section Config Type:,Column,,,,,,,
Start Wavelength (nm):,900,,,,,,Start Wavelength (nm):,900.0,,,,,,
End Wavelength (nm):,1700,,,,,,End Wavelength (nm):,1700.0,,,,,,
Pattern Width (nm):,7.03,,,,,,Pattern Width (nm):,7.03,,,,,,,
Exposure (ms):,0.635,,,,,,Exposure (ms):,0.635,,,,,,,
Digital Resolution:,228,,,,,,Digital Resolution:,228,,,,,,,
Num Repeats:,6,,,,,,Num Repeats:,30,,,,,,,
PGA Gain:,64,,,,,,PGA Gain:,64,,,,,,
System Temp (C):,26.85,,,,,,System Temp (C):,24.17,,,,,,,
Humidity (%):,38.8,,,,,,Humidity (%):,30.0,,,,,,
Battery Capacity (%):,57,,,,,,Lamp Intensity:,2449,,,,,,,
Lamp Intensity:,2555,,,,,,Data Date-Time:,19/12/12T12:44:54,,,,,,
Data Date-Time:,18/1/1T7:9:55,,,,,,,,,,,,,,
Total Measurement Time in sec:,4.84,,,,,,,,,,,,,
***General Information***,,,,,,,***Calibration Coefficients***,,,,,,,,
Model Name:,NIR-S-G1,,,,,,Shift Vector Coefficients:,-8.44101,0.0554567,-8.45244e-05,,,,,
Serial Number:,947R055,95UB122GC0A947R055,,,,,Pixel to Wavelength Coefficients:,1795.87,-0.92014,-0.00023961,,,,,
APP Version:,2.16.7,,,,,,,,,,,,,
TIVA Version:,2.4.4,,,,,,***Lamp Usage * **,,,,,,,,
UUID:,de:67:c:88:67:2c:2d:21,,,,,,Total Time(HH:MM:SS):,13min 14sec ,,,,,,,
Main Board Version:,D,,,,,,***Device/Error Status***,,,,,,,,
Detector Board Version:,B,,,,,,Device Status:,0x00000031,,,,,,
,,,,,,,Error status:,0x00000000,Error Code:,0x00000000000000000000000000000000,,,,,
,,,,,,,,,Error Details:,Not Found,,,,,
***Scan Data***,,,,,,,,,,,,,,,
Wavelength (nm),Absorbance (AU),Reference Signal (unitless),Sample Signal (unitless)
901.841,1.46179,99968.0,3452
905.754,1.48291,108993.0,3585
909.663,1.49576,118185.0,3774
913.568,1.49058,129285.0,4178
917.469,1.48624,143347.0,4679
921.365,1.51184,160437.0,4937
925.257,1.5091,180387.0,5586
929.144,1.48169,201426.0,6644
933.028,1.484172,220694.0,7238
936.906,1.47052,237501.0,8038
942.072,1.48439,256956.0,8423
945.94,1.483142,270636.0,8897
949.805,1.49441,283621.0,9085
953.665,1.49501,296982.0,9500
957.521,1.4759,310733.0,10387
961.373,1.49267,324587.0,10439
965.22,1.48327,339205.0,11148
969.063,1.474842,353669.0,11851
972.902,1.48538,368253.0,12044
976.736,1.47278,382531.0,12879
981.842,1.49099,399901.0,12911
985.666,1.47358,411528.0,13830
989.486,1.48313,422199.0,13880
993.302,1.48562,431172.0,14094
997.113,1.48646,438051.0,14291
1000.92,1.48677,444216.0,14482
1004.72,1.49001,449307.0,14539
1008.52,1.484217,453601.0,14875
1012.32,1.48213,456801.0,15052
1016.11,1.49796,459312.0,14593
1021.15,1.48946,461643.0,14957
1024.93,1.474642,463069.0,15524
1028.71,1.48961,463868.0,15024
1032.48,1.48318,464326.0,15263
1036.24,1.492875,466001.0,14980
1040.01,1.49917,466870.0,14792
1043.77,1.49686,467033.0,14876
1047.52,1.49544,467045.0,14925
1051.27,1.4862,467467.0,15260
1055.01,1.49173,467627.0,15072
1060,1.491307,468351.0,15110
1063.74,1.49608,469050.0,14967
1067.47,1.48769,469880.0,15286
1071.19,1.496041,471228.0,15038
1074.92,1.4839,472558.0,15508
1078.63,1.49792,474087.0,15064
1082.35,1.4855,476569.0,15582
1086.06,1.49108,479445.0,15476
1089.76,1.49138,481756.0,15540
1093.46,1.49889,485147.0,15381
1098.39,1.49171,489755.0,15786
1102.08,1.49244,493535.0,15881
1105.77,1.50041,497426.0,15715
1109.45,1.50104,501308.0,15815
1113.13,1.50085,505725.0,15961
1116.8,1.50269,509421.0,16010
1120.47,1.49615,513217.0,16374
1124.13,1.48726,517470.0,16851
1127.79,1.49665,521690.0,16625
1131.45,1.48486,526099.0,17227
1136.32,1.49763,531329.0,16894
1139.96,1.49861,535549.0,16990
1143.61,1.50929,539808.0,16709
1147.24,1.51811,543900.0,16497
1150.88,1.52554,547908.0,16337
1154.5,1.532826,552170.0,16190
1158.13,1.53869,556773.0,16106
1161.75,1.52643,561098.0,16696
1165.36,1.53914,565898.0,16353
1168.98,1.53933,571300.0,16502
1172.58,1.55959,576602.0,15896
1177.39,1.57472,584320.0,15557
1180.98,1.57233,589396.0,15779
1184.58,1.59822,596143.0,15036
1188.16,1.59596,602955.0,15287
1191.75,1.61789,609704.0,14697
1195.33,1.62185,617215.0,14743
1198.9,1.60538,624471.0,15493
1202.48,1.60592,632472.0,15672
1206.04,1.61245,640381.0,15631
1209.61,1.60602,648161.0,16057
1214.35,1.60317,659999.0,16458
1217.9,1.59948,668609.0,16815
1221.45,1.58548,677405.0,17594
1224.99,1.571118,686281.0,18424
1228.53,1.56063,695317.0,19123
1232.07,1.558,704063.0,19481
1235.6,1.54266,713007.0,20438
1239.13,1.53457,721330.0,21065
1242.65,1.53871,730030.0,21117
1246.17,1.52797,737591.0,21870
1250.85,1.52054,746809.0,22525
1254.36,1.53023,753336.0,22221
1257.86,1.51361,759907.0,23289
1261.36,1.52201,766538.0,23042
1264.86,1.52174,774802.0,23305
1268.35,1.51367,784025.0,24025
1271.83,1.505045,794336.0,24829
1275.32,1.513828,804198.0,24634
1278.79,1.51133,813836.0,25073
1282.27,1.50668,823595.0,25647
1286.89,1.51193,834533.0,25675
1290.36,1.51139,842581.0,25955
1293.81,1.509139,849301.0,26298
1297.27,1.51798,856026.0,25972
1300.72,1.49826,862498.0,27384
1304.17,1.50648,868068.0,27044
1307.61,1.51488,872869.0,26673
1311.05,1.51426,877616.0,26856
1314.48,1.50818,881872.0,27367
1317.91,1.51601,885520.0,26989
1322.47,1.50577,888917.0,27739
1325.89,1.5088,891687.0,27632
1329.31,1.50341,894001.0,28050
1332.72,1.51817,895438.0,27156
1336.12,1.50422,896641.0,28080
1339.52,1.5183,897974.0,27225
1342.92,1.51033,898777.0,27754
1346.31,1.51725,898783.0,27315
1349.7,1.51717,898350.0,27307
1353.09,1.52169,896784.0,26977
1357.59,1.541441,895293.0,25735
1360.97,1.558352,892755.0,24682
1364.34,1.55806,890430.0,24634
1367.7,1.5683,888504.0,24008
1371.06,1.57876,885825.0,23366
1374.42,1.579417,881046.0,23205
1377.77,1.58289,874030.0,22837
1381.12,1.59501,865751.0,21998
1384.47,1.60099,857799.0,21498
1387.81,1.61092,851759.0,20864
1392.25,1.61109,846500.0,20727
1395.58,1.61478,843622.0,20482
1398.91,1.6288,841228.0,19775
1402.23,1.6051,838489.0,20816
1405.55,1.60174,836065.0,20917
1408.86,1.59959,834396.0,20979
1412.17,1.60203,832187.0,20806
1415.47,1.60192,830123.0,20760
1418.77,1.6021,828244.0,20704
1422.07,1.58992,827314.0,21269
1426.45,1.59685,826435.0,20910
1429.74,1.587367,825475.0,21347
1433.02,1.5857,824938.0,21415
1436.29,1.59021,823959.0,21169
1439.57,1.58564,823822.0,21389
1442.83,1.58314,823184.0,21496
1446.1,1.58334,821953.0,21454
1449.36,1.57397,821135.0,21900
1452.61,1.57391,819413.0,21857
1455.86,1.56535,817492.0,22240
1459.11,1.56311,814862.0,22283
1463.43,1.56353,811075.0,22158
1466.67,1.55378,807671.0,22566
1469.9,1.5562,803699.0,22330
1473.13,1.55418,799396.0,22314
1476.35,1.5563,795129.0,22087
1479.57,1.55862,790127.0,21831
1482.78,1.55708,784937.0,21765
1486,1.556744,779544.0,21632
1489.2,1.55372,773733.0,21621
1492.4,1.5503,767463.0,21615
1496.67,1.5437,758614.0,21693
1499.86,1.54553,751802.0,21408
1503.04,1.54042,744297.0,21445
1506.23,1.5431,735980.0,21075
1509.41,1.53758,728040.0,21114
1512.58,1.53227,719703.0,21129
1515.75,1.53936,710982.0,20535
1518.92,1.53694,702409.0,20401
1522.08,1.53386,693280.0,20279
1525.24,1.52117,683935.0,20599
1529.44,1.52107,671492.0,20229
1532.59,1.519859,661352.0,19979
1535.73,1.52545,650841.0,19410
1538.87,1.5263,640156.0,19054
1542,1.51653,629036.0,19149
1545.13,1.51941,617445.0,18672
1548.26,1.51729,605527.0,18401
1551.38,1.52208,594133.0,17857
1554.49,1.51907,582894.0,17641
1557.61,1.52407,571271.0,17091
1561.75,1.52309,555940.0,16670
1564.85,1.52649,544812.0,16209
1567.95,1.51625,533402.0,16248
1571.05,1.52935,521915.0,15426
1574.14,1.53698,510788.0,14834
1577.22,1.52323,499607.0,14976
1580.3,1.5274,487992.0,14488
1583.38,1.523912,476265.0,14254
1586.45,1.52643,464618.0,13825
1589.52,1.52283,452782.0,13585
1593.6,1.5204,436897.0,13182
1596.66,1.50979,425551.0,13157
1599.71,1.53871,414191.0,11981
1602.76,1.51837,402799.0,12210
1605.81,1.52965,391352.0,11559
1608.85,1.52894,380811.0,11266
1611.89,1.51977,370076.0,11182
1614.92,1.54631,359798.0,10227
1617.95,1.52885,349165.0,10332
1620.97,1.53184,338717.0,9954
1624.99,1.538644,325435.0,9415
1628.01,1.54912,315463.0,8909
1631.02,1.53275,305570.0,8961
1634.02,1.53746,295762.0,8580
1637.02,1.54111,286306.0,8236
1640.02,1.54175,276696.0,7948
1643.01,1.5543,267004.0,7451
1646,1.5459,257531.0,7327
1648.98,1.5178,247817.0,7522
1651.96,1.533843,238547.0,6978
1655.93,1.529669,225092.0,6648
1658.89,1.531866,214425.0,6301
1661.86,1.56606,202241.0,5493
1664.82,1.523062,188046.0,5639
1667.78,1.53572,171566.0,4997
1670.73,1.5184,154101.0,4671
1673.67,1.50819,134892.0,4186
1676.62,1.50166,115325.0,3633
1679.56,1.516767,97255.0,2959
1682.49,1.50838,81017.0,2513
1686.4,1.55725,63571.0,1762
1689.32,1.50177,53566.0,1687
1692.24,1.69558,45493.0,917
1695.16,1.71668,39217.0,753
1698.07,1.56126,33537.0,921
1700.97,1.63486,29118.0,675

File: PP12_Column 1_20211230_113052.csv
***Scan Config Information***,,,,,,,***Reference Scan Information***,,,,,,,,
Scan Config Name:,Column 1,,,,,,Scan Config Name:,Built-in Factory Reference,,,,,,
Scan Config Type:,Slew,Num Section:,1,,,,Scan Config Type:,Slew,Num Section:,1,,,,,
Section Config Type:,Column,,,,,,Section Config Type:,Column,,,,,,,
Start Wavelength (nm):,900,,,,,,Start Wavelength (nm):,900.0,,,,,,
End Wavelength (nm):,1700,,,,,,End Wavelength (nm):,1700.0,,,,,,
Pattern Width (nm):,7.03,,,,,,Pattern Width (nm):,7.03,,,,,,,
Exposure (ms):,0.635,,,,,,Exposure (ms):,0.635,,,,,,,
Digital Resolution:,228,,,,,,Digital Resolution:,228,,,,,,,
Num Repeats:,6,,,,,,Num Repeats:,30,,,,,,,
PGA Gain:,64,,,,,,PGA Gain:,64,,,,,,
System Temp (C):,27.02,,,,,,System Temp (C):,24.17,,,,,,,
Humidity (%):,38.68,,,,,,Humidity (%):,30.0,,,,,,
Battery Capacity (%):,57,,,,,,Lamp Intensity:,2449,,,,,,,
Lamp Intensity:,2558,,,,,,Data Date-Time:,19/12/12T12:44:54,,,,,,
Data Date-Time:,18/1/1T7:10:10,,,,,,,,,,,,,,
Total Measurement Time in sec:,5.349,,,,,,,,,,,,,
***General Information***,,,,,,,***Calibration Coefficients***,,,,,,,,
Model Name:,NIR-S-G1,,,,,,Shift Vector Coefficients:,-8.44101,0.0554567,-8.45244e-05,,,,,
Serial Number:,947R055,95UB122GC0A947R055,,,,,Pixel to Wavelength Coefficients:,1795.87,-0.92014,-0.00023961,,,,,
APP Version:,2.16.7,,,,,,,,,,,,,
TIVA Version:,2.4.4,,,,,,***Lamp Usage * **,,,,,,,,
UUID:,de:67:c:88:67:2c:2d:21,,,,,,Total Time(HH:MM:SS):,13min 16sec ,,,,,,,
Main Board Version:,D,,,,,,***Device/Error Status***,,,,,,,,
Detector Board Version:,B,,,,,,Device Status:,0x00000031,,,,,,
,,,,,,,Error status:,0x00000000,Error Code:,0x00000000000000000000000000000000,,,,,
,,,,,,,,,Error Details:,Not Found,,,,,
***Scan Data***,,,,,,,,,,,,,,,
Wavelength (nm),Absorbance (AU),Reference Signal (unitless),Sample Signal (unitless)
901.841,1.60699,99968.0,2471
905.754,1.63998,108993.0,2497
909.663,1.6372,118185.0,2725
913.568,1.63039,129285.0,3028
917.469,1.68043,143347.0,2992
921.365,1.6285,160437.0,3774
925.257,1.70905,180387.0,3525
929.144,1.69495,201426.0,4066
933.028,1.65262,220694.0,4911
936.906,1.68361,237501.0,4921
942.072,1.69419,256956.0,5196
945.94,1.67666,270636.0,5698
949.805,1.66429,283621.0,6144
953.665,1.67671,296982.0,6252
957.521,1.69588,310733.0,6259
961.373,1.65855,324587.0,7125
965.22,1.66935,339205.0,7263
969.063,1.67261,353669.0,7516
972.902,1.66295,368253.0,8002
976.736,1.67969,382531.0,7998
981.842,1.678553,399901.0,8383
985.666,1.66923,411528.0,8814
989.486,1.65059,422199.0,9439
993.302,1.67968,431172.0,9015
997.113,1.69292,438051.0,8884
1000.92,1.67051,444216.0,9486
1004.72,1.66092,449307.0,9809
1008.52,1.6784,453601.0,9512
1012.32,1.66317,456801.0,9921
1016.11,1.65779,459312.0,10100
1021.15,1.66305,461643.0,10029
1024.93,1.65961,463069.0,10140
1028.71,1.68503,463868.0,9580
1032.48,1.6865,464326.0,9557
1036.24,1.67266,466001.0,9902
1040.01,1.66898,466870.0,10005
1043.77,1.68267,467033.0,9698
1047.52,1.66728,467045.0,10048
1051.27,1.68725,467467.0,9605
1055.01,1.66674,467627.0,10073
1060,1.68161,468351.0,9749
1063.74,1.66394,469050.0,10169
1067.47,1.67859,469880.0,9849
1071.19,1.66694,471228.0,10146
1074.92,1.68089,472558.0,9853
1078.63,1.67621,474087.0,9992
1082.35,1.69301,476569.0,9663
1086.06,1.66187,479445.0,10444
1089.76,1.67096,481756.0,10277
1093.46,1.67435,485147.0,10269
1098.39,1.66607,489755.0,10566
1102.08,1.67654,493535.0,10394
1105.77,1.690562,497426.0,10143
1109.45,1.6807,501308.0,10457
1113.13,1.689142,505725.0,10346
1116.8,1.67555,509421.0,10753
1120.47,1.68442,513217.0,10614
1124.13,1.67926,517470.0,10830
1127.79,1.690961,521690.0,10628
1131.45,1.69043,526099.0,10731
1136.32,1.7055,531329.0,10468
1139.96,1.69141,535549.0,10899
1143.61,1.71117,539808.0,10497
1147.24,1.72209,543900.0,10314
1150.88,1.69973,547908.0,10939
1154.5,1.73638,552170.0,10132
1158.13,1.71081,556773.0,10836
1161.75,1.72686,561098.0,10524
1165.36,1.73217,565898.0,10485
1168.98,1.73904,571300.0,10419
1172.58,1.73697,576602.0,10566
1177.39,1.76341,584320.0,10075
1180.98,1.78212,589396.0,9734
1184.58,1.78152,596143.0,9859
1188.16,1.78893,602955.0,9803
1191.75,1.79085,609704.0,9869
1195.33,1.80304,617215.0,9714
1198.9,1.79166,624471.0,10089
1202.48,1.80252,632472.0,9966
1206.04,1.788946,640381.0,10411
1209.61,1.78958,648161.0,10522
1214.35,1.7761,659999.0,11052
1217.9,1.79571,668609.0,10702
1221.45,1.77723,677405.0,11314
1224.99,1.77618,686281.0,11490
1228.53,1.74988,695317.0,12368
1232.07,1.7449,704063.0,12668
1235.6,1.73019,713007.0,13271
1239.13,1.73931,721330.0,13147
1242.65,1.72227,730030.0,13838
1246.17,1.73163,737591.0,13683
1250.85,1.72904,746809.0,13937
1254.36,1.72068,753336.0,14332
1257.86,1.71879,759907.0,14520
1261.36,1.71997,766538.0,14607
1264.86,1.7179,774802.0,14835
1268.35,1.71403,784025.0,15146
1271.83,1.71192,794336.0,15420
1275.32,1.71582,804198.0,15472
1278.79,1.698003,813836.0,16313
1282.27,1.70684,823595.0,16176
1286.89,1.70296,834533.0,16538
1290.36,1.69937,842581.0,16836
1293.81,1.71197,849301.0,16485
1297.27,1.69911,856026.0,17115
1300.72,1.710242,862498.0,16808
1304.17,1.70449,868068.0,17142
1307.61,1.70341,872869.0,17280
1311.05,1.7038,877616.0,17358
1314.48,1.71023,881872.0,17186
1317.91,1.69979,885520.0,17677
1322.47,1.71462,888917.0,17149
1325.89,1.70055,891687.0,17769
1329.31,1.706591,894001.0,17569
1332.72,1.70157,895438.0,17802
1336.12,1.71669,896641.0,17216
1339.52,1.70431,897974.0,17740
1342.92,1.70676,898777.0,17656
1346.31,1.70923,898783.0,17556
1349.7,1.72157,898350.0,17056
1353.09,1.72557,896784.0,16870
1357.59,1.72759,895293.0,16764
1360.97,1.748953,892755.0,15914
1364.34,1.74812,890430.0,15903
1367.7,1.766873,888504.0,15198
1371.06,1.75646,885825.0,15520
1374.42,1.76527,881046.0,15126
1377.77,1.77557,874030.0,14654
1381.12,1.78532,865751.0,14193
1384.47,1.778171,857799.0,14296
1387.81,1.78295,851759.0,14040
1392.25,1.80072,846500.0,13394
1395.58,1.805541,843622.0,13201
1398.91,1.80162,841228.0,13283
1402.23,1.795,838489.0,13443
1405.55,1.7951,836065.0,13401
1408.86,1.78669,834396.0,13636
1412.17,1.78723,832187.0,13583
1415.47,1.77572,830123.0,13913
1418.77,1.78824,828244.0,13487
1422.07,1.77235,827314.0,13974
1426.45,1.76151,826435.0,14312
1429.74,1.77875,825475.0,13739
1433.02,1.77532,824938.0,13839
1436.29,1.774644,823959.0,13844
1439.57,1.75366,823822.0,14527
1442.83,1.76211,823184.0,14236
1446.1,1.7652,821953.0,14114
1449.36,1.759504,821135.0,14286
1452.61,1.75157,819413.0,14519
1455.86,1.74742,817492.0,14624
1459.11,1.75935,814862.0,14182
1463.43,1.74913,811075.0,14452
1466.67,1.746406,807671.0,14482
1469.9,1.74649,803699.0,14408
1473.13,1.73456,799396.0,14730
1476.35,1.754,795129.0,14010
1479.57,1.72843,790127.0,14766
1482.78,1.72707,784937.0,14715
1486,1.733026,779544.0,14415
1489.2,1.74358,773733.0,13964
1492.4,1.726273,767463.0,14414
1496.67,1.72523,758614.0,14282
1499.86,1.71883,751802.0,14364
1503.04,1.71979,744297.0,14189
1506.23,1.71743,735980.0,14107
1509.41,1.71708,728040.0,13966
1512.58,1.71523,719703.0,13865
1515.75,1.719695,710982.0,13557
1518.92,1.72618,702409.0,13195
1522.08,1.7203,693280.0,13201
1525.24,1.717843,683935.0,13097
1529.44,1.71303,671492.0,13002
1532.59,1.69586,661352.0,13322
1535.73,1.69753,650841.0,13060
1538.87,1.71787,640156.0,12258
1542,1.70389,629036.0,12439
1545.13,1.69672,617445.0,12413
1548.26,1.70274,605527.0,12006
1551.38,1.69954,594133.0,11867
1554.49,1.71482,582894.0,11240
1557.61,1.70001,571271.0,11398
1561.75,1.70214,555940.0,11038
1564.85,1.70914,544812.0,10644
1567.95,1.705824,533402.0,10501
1571.05,1.68414,521915.0,10801
1574.14,1.68016,510788.0,10668
1577.22,1.7033,499607.0,9893
1580.3,1.68323,487992.0,10120
1583.38,1.69531,476265.0,9606
1586.45,1.70577,464618.0,9148
1589.52,1.68531,452782.0,9345
1593.6,1.69138,436897.0,8892
1596.66,1.71758,425551.0,8154
1599.71,1.70275,414191.0,8212
1602.76,1.67854,402799.0,8444
1605.81,1.70942,391352.0,7641
1608.85,1.67816,380811.0,7990
1611.89,1.69184,370076.0,7524
1614.92,1.71658,359798.0,6910
1617.95,1.67415,349165.0,7394
1620.97,1.69149,338717.0,6892
1624.99,1.70163,325435.0,6469
1628.01,1.67242,315463.0,6707
1631.02,1.71477,305570.0,5893
1634.02,1.69767,295762.0,5933
1637.02,1.7005,286306.0,5706
1640.02,1.71292,276696.0,5359
1643.01,1.687658,267004.0,5481
1646,1.70224,257531.0,5112
1648.98,1.71361,247817.0,4792
1651.96,1.72061,238547.0,4539
1655.93,1.68267,225092.0,4674
1658.89,1.68409,214425.0,4438
1661.86,1.64872,202241.0,4541
1664.82,1.67231,188046.0,3999
1667.78,1.66941,171566.0,3673
1670.73,1.72064,154101.0,2932
1673.67,1.69542,134892.0,2720
1676.62,1.67793,115325.0,2421
1679.56,1.65912,97255.0,2132
1682.49,1.63234,81017.0,1889
1686.4,1.76623,63571.0,1089
1689.32,1.66819,53566.0,1150
1692.24,1.65276,45493.0,1012
1695.16,1.68714,39217.0,806
1698.07,1.700098,33537.0,669
1700.97,1.59906,29118.0,733