Folder: Dorgan_Laubach_Research/Data/PP (part 8)

File: PP15_Column 1_20211230_113134.csv
***Scan Config Information***,,,,,,,***Reference Scan Information***,,,,,,,,
Scan Config Name:,Column 1,,,,,,Scan Config Name:,Built-in Factory Reference,,,,,,
Scan Config Type:,Slew,Num Section:,1,,,,Scan Config Type:,Slew,Num Section:,1,,,,,
Section Config Type:,Column,,,,,,Section Config Type:,Column,,,,,,,
Start Wavelength (nm):,900,,,,,,Start Wavelength (nm):,900.0,,,,,,
End Wavelength (nm):,1700,,,,,,End Wavelength (nm):,1700.0,,,,,,
Pattern Width (nm):,7.03,,,,,,Pattern Width (nm):,7.03,,,,,,,
Exposure (ms):,0.635,,,,,,Exposure (ms):,0.635,,,,,,,
Digital Resolution:,228,,,,,,Digital Resolution:,228,,,,,,,
Num Repeats:,6,,,,,,Num Repeats:,30,,,,,,,
PGA Gain:,64,,,,,,PGA Gain:,64,,,,,,
System Temp (C):,27.51,,,,,,System Temp (C):,24.17,,,,,,,
Humidity (%):,38.44,,,,,,Humidity (%):,30.0,,,,,,
Battery Capacity (%):,56,,,,,,Lamp Intensity:,2449,,,,,,,
Lamp Intensity:,2567,,,,,,Data Date-Time:,19/12/12T12:44:54,,,,,,
Data Date-Time:,18/1/1T7:10:54,,,,,,,,,,,,,,
Total Measurement Time in sec:,4.258,,,,,,,,,,,,,
***General Information***,,,,,,,***Calibration Coefficients***,,,,,,,,
Model Name:,NIR-S-G1,,,,,,Shift Vector Coefficients:,-8.44101,0.0554567,-8.45244e-05,,,,,
Serial Number:,947R055,95UB122GC0A947R055,,,,,Pixel to Wavelength Coefficients:,1795.87,-0.92014,-0.00023961,,,,,
APP Version:,2.16.7,,,,,,,,,,,,,
TIVA Version:,2.4.4,,,,,,***Lamp Usage * **,,,,,,,,
UUID:,de:67:c:88:67:2c:2d:21,,,,,,Total Time(HH:MM:SS):,13min 23sec ,,,,,,,
Main Board Version:,D,,,,,,***Device/Error Status***,,,,,,,,
Detector Board Version:,B,,,,,,Device Status:,0x00000031,,,,,,
,,,,,,,Error status:,0x00000000,Error Code:,0x00000000000000000000000000000000,,,,,
,,,,,,,,,Error Details:,Not Found,,,,,
***Scan Data***,,,,,,,,,,,,,,,
Wavelength (nm),Absorbance (AU),Reference Signal (unitless),Sample Signal (unitless)
901.841,1.397801,99968.0,4000
905.754,1.49012,108993.0,3526
909.663,1.4679,118185.0,4024
913.568,1.45979,129285.0,4485
917.469,1.479878,143347.0,4748
921.365,1.45287,160437.0,5655
925.257,1.44921,180387.0,6412
929.144,1.499908,201426.0,6371
933.028,1.44853,220694.0,7857
936.906,1.46472,237501.0,8146
942.072,1.45177,256956.0,9080
945.94,1.46306,270636.0,9318
949.805,1.44941,283621.0,10077
953.665,1.46588,296982.0,10159
957.521,1.45218,310733.0,10970
961.373,1.46343,324587.0,11166
965.22,1.44987,339205.0,12039
969.063,1.45117,353669.0,12515
972.902,1.45928,368253.0,12790
976.736,1.44345,382531.0,13779
981.842,1.44976,399901.0,14197
985.666,1.47067,411528.0,13923
989.486,1.46406,422199.0,14503
993.302,1.44676,431172.0,15413
997.113,1.46439,438051.0,15036
1000.92,1.46738,444216.0,15143
1004.72,1.46488,449307.0,15405
1008.52,1.468815,453601.0,15412
1012.32,1.466686,456801.0,15597
1016.11,1.46178,459312.0,15861
1021.15,1.46038,461643.0,15993
1024.93,1.45745,463069.0,16151
1028.71,1.45774,463868.0,16168
1032.48,1.45325,464326.0,16352
1036.24,1.46305,466001.0,16045
1040.01,1.46581,466870.0,15973
1043.77,1.46295,467033.0,16084
1047.52,1.4638,467045.0,16053
1051.27,1.47107,467467.0,15801
1055.01,1.4617,467627.0,16151
1060,1.46901,468351.0,15906
1063.74,1.4658,469050.0,16048
1067.47,1.4643,469880.0,16132
1071.19,1.46107,471228.0,16299
1074.92,1.465396,472558.0,16183
1078.63,1.45903,474087.0,16475
1082.35,1.45904,476569.0,16561
1086.06,1.46871,479445.0,16294
1089.76,1.48239,481756.0,15865
1093.46,1.470553,485147.0,16418
1098.39,1.46958,489755.0,16611
1102.08,1.4684,493535.0,16785
1105.77,1.46495,497426.0,17052
1109.45,1.46236,501308.0,17288
1113.13,1.46846,505725.0,17197
1116.8,1.46377,509421.0,17511
1120.47,1.45981,513217.0,17803
1124.13,1.47702,517470.0,17253
1127.79,1.481329,521690.0,17222
1131.45,1.47026,526099.0,17816
1136.32,1.46903,531329.0,18044
1139.96,1.48073,535549.0,17704
1143.61,1.49144,539808.0,17410
1147.24,1.50088,543900.0,17165
1150.88,1.499258,547908.0,17356
1154.5,1.502323,552170.0,17368
1158.13,1.51144,556773.0,17149
1161.75,1.51488,561098.0,17146
1165.36,1.51196,565898.0,17409
1168.98,1.52344,571300.0,17117
1172.58,1.529738,576602.0,17027
1177.39,1.55191,584320.0,16396
1180.98,1.55575,589396.0,16393
1184.58,1.56755,596143.0,16136
1188.16,1.57709,602955.0,15966
1191.75,1.58171,609704.0,15974
1195.33,1.59512,617215.0,15679
1198.9,1.58608,624471.0,16197
1202.48,1.581745,632472.0,16569
1206.04,1.58235,640381.0,16753
1209.61,1.581694,648161.0,16982
1214.35,1.5824,659999.0,17264
1217.9,1.58015,668609.0,17580
1221.45,1.571924,677405.0,18152
1224.99,1.541573,686281.0,19721
1228.53,1.54029,695317.0,20040
1232.07,1.53569,704063.0,20508
1235.6,1.5227,713007.0,21399
1239.13,1.5192,721330.0,21824
1242.65,1.50841,730030.0,22643
1246.17,1.50853,737591.0,22871
1250.85,1.50639,746809.0,23271
1254.36,1.50461,753336.0,23571
1257.86,1.500513,759907.0,24002
1261.36,1.49707,766538.0,24404
1264.86,1.50063,774802.0,24466
1268.35,1.4989,784025.0,24856
1271.83,1.49004,794336.0,25702
1275.32,1.48876,804198.0,26098
1278.79,1.48798,813836.0,26458
1282.27,1.49171,823595.0,26546
1286.89,1.49018,834533.0,26994
1290.36,1.48908,842581.0,27323
1293.81,1.493249,849301.0,27278
1297.27,1.48287,856026.0,28159
1300.72,1.48419,862498.0,28286
1304.17,1.48429,868068.0,28462
1307.61,1.48853,872869.0,28341
1311.05,1.48671,877616.0,28615
1314.48,1.48419,881872.0,28921
1317.91,1.48049,885520.0,29289
1322.47,1.491373,888917.0,28674
1325.89,1.49156,891687.0,28751
1329.31,1.48454,894001.0,29295
1332.72,1.49863,895438.0,28406
1336.12,1.49551,896641.0,28649
1339.52,1.49345,897974.0,28828
1342.92,1.49458,898777.0,28779
1346.31,1.49328,898783.0,28865
1349.7,1.494219,898350.0,28789
1353.09,1.506928,896784.0,27910
1357.59,1.52057,895293.0,27002
1360.97,1.52773,892755.0,26485
1364.34,1.54204,890430.0,25560
1367.7,1.5466,888504.0,25238
1371.06,1.55085,885825.0,24917
1374.42,1.5536,881046.0,24626
1377.77,1.564129,874030.0,23845
1381.12,1.572842,865751.0,23150
1384.47,1.58111,857799.0,22505
1387.81,1.5763,851759.0,22595
1392.25,1.59031,846500.0,21743
1395.58,1.59761,843622.0,21308
1398.91,1.596,841228.0,21326
1402.23,1.59239,838489.0,21434
1405.55,1.57279,836065.0,22359
1408.86,1.57217,834396.0,22346
1412.17,1.571624,832187.0,22315
1415.47,1.57888,830123.0,21891
1418.77,1.57032,828244.0,22276
1422.07,1.57102,827314.0,22215
1426.45,1.55467,826435.0,23043
1429.74,1.568438,825475.0,22298
1433.02,1.56003,824938.0,22719
1436.29,1.5558,823959.0,22914
1439.57,1.55994,823822.0,22693
1442.83,1.54809,823184.0,23303
1446.1,1.55384,821953.0,22962
1449.36,1.54919,821135.0,23186
1452.61,1.549346,819413.0,23129
1455.86,1.537021,817492.0,23739
1459.11,1.54259,814862.0,23361
1463.43,1.54228,811075.0,23269
1466.67,1.53454,807671.0,23588
1469.9,1.53377,803699.0,23514
1473.13,1.54109,799396.0,22997
1476.35,1.52393,795129.0,23796
1479.57,1.52231,790127.0,23735
1482.78,1.5291,784937.0,23213
1486,1.52887,779544.0,23066
1489.2,1.52643,773733.0,23023
1492.4,1.52186,767463.0,23078
1496.67,1.52321,758614.0,22741
1499.86,1.51494,751802.0,22970
1503.04,1.52067,744297.0,22443
1506.23,1.50912,735980.0,22790
1509.41,1.51063,728040.0,22466
1512.58,1.50784,719703.0,22352
1515.75,1.50918,710982.0,22013
1518.92,1.51159,702409.0,21627
1522.08,1.51098,693280.0,21376
1525.24,1.50751,683935.0,21257
1529.44,1.51319,671492.0,20599
1532.59,1.49588,661352.0,21113
1535.73,1.50314,650841.0,20433
1538.87,1.50225,640156.0,20139
1542,1.49969,629036.0,19906
1545.13,1.50262,617445.0,19408
1548.26,1.50008,605527.0,19145
1551.38,1.49122,594133.0,19172
1554.49,1.486996,582894.0,18993
1557.61,1.49556,571271.0,18251
1561.75,1.491157,555940.0,17942
1564.85,1.50483,544812.0,17038
1567.95,1.502392,533402.0,16775
1571.05,1.49611,521915.0,16653
1574.14,1.49749,510788.0,16246
1577.22,1.49337,499607.0,16042
1580.3,1.49086,487992.0,15760
1583.38,1.49881,476265.0,15102
1586.45,1.50218,464618.0,14619
1589.52,1.49106,452782.0,14616
1593.6,1.50976,436897.0,13509
1596.66,1.49239,425551.0,13695
1599.71,1.50189,414191.0,13041
1602.76,1.49914,402799.0,12763
1605.81,1.48965,391352.0,12674
1608.85,1.51145,380811.0,11729
1611.89,1.50402,370076.0,11595
1614.92,1.50684,359798.0,11200
1617.95,1.49994,349165.0,11043
1620.97,1.52461,338717.0,10121
1624.99,1.50943,325435.0,10070
1628.01,1.521728,315463.0,9489
1631.02,1.52928,305570.0,9033
1634.02,1.533224,295762.0,8664
1637.02,1.51811,286306.0,8684
1640.02,1.52016,276696.0,8353
1643.01,1.54059,267004.0,7690
1646,1.54084,257531.0,7413
1648.98,1.51429,247817.0,7583
1651.96,1.5273,238547.0,7084
1655.93,1.54152,225092.0,6469
1658.89,1.51537,214425.0,6545
1661.86,1.48738,202241.0,6584
1664.82,1.51793,188046.0,5706
1667.78,1.50051,171566.0,5419
1670.73,1.484,154101.0,5056
1673.67,1.49652,134892.0,4300
1676.62,1.50695,115325.0,3589
1679.56,1.46469,97255.0,3336
1682.49,1.54855,81017.0,2291
1686.4,1.53095,63571.0,1872
1689.32,1.4856,53566.0,1751
1692.24,1.59162,45493.0,1165
1695.16,1.65047,39217.0,877
1698.07,1.65629,33537.0,740
1700.97,1.68529,29118.0,601

File: PP16_Column 1_20211230_113149.csv
***Scan Config Information***,,,,,,,***Reference Scan Information***,,,,,,,,
Scan Config Name:,Column 1,,,,,,Scan Config Name:,Built-in Factory Reference,,,,,,
Scan Config Type:,Slew,Num Section:,1,,,,Scan Config Type:,Slew,Num Section:,1,,,,,
Section Config Type:,Column,,,,,,Section Config Type:,Column,,,,,,,
Start Wavelength (nm):,900,,,,,,Start Wavelength (nm):,900.0,,,,,,
End Wavelength (nm):,1700,,,,,,End Wavelength (nm):,1700.0,,,,,,
Pattern Width (nm):,7.03,,,,,,Pattern Width (nm):,7.03,,,,,,,
Exposure (ms):,0.635,,,,,,Exposure (ms):,0.635,,,,,,,
Digital Resolution:,228,,,,,,Digital Resolution:,228,,,,,,,
Num Repeats:,6,,,,,,Num Repeats:,30,,,,,,,
PGA Gain:,64,,,,,,PGA Gain:,64,,,,,,
System Temp (C):,27.67,,,,,,System Temp (C):,24.17,,,,,,,
Humidity (%):,38.33,,,,,,Humidity (%):,30.0,,,,,,
Battery Capacity (%):,56,,,,,,Lamp Intensity:,2449,,,,,,,
Lamp Intensity:,2569,,,,,,Data Date-Time:,19/12/12T12:44:54,,,,,,
Data Date-Time:,18/1/1T7:11:8,,,,,,,,,,,,,,
Total Measurement Time in sec:,4.171,,,,,,,,,,,,,
***General Information***,,,,,,,***Calibration Coefficients***,,,,,,,,
Model Name:,NIR-S-G1,,,,,,Shift Vector Coefficients:,-8.44101,0.0554567,-8.45244e-05,,,,,
Serial Number:,947R055,95UB122GC0A947R055,,,,,Pixel to Wavelength Coefficients:,1795.87,-0.92014,-0.00023961,,,,,
APP Version:,2.16.7,,,,,,,,,,,,,
TIVA Version:,2.4.4,,,,,,***Lamp Usage * **,,,,,,,,
UUID:,de:67:c:88:67:2c:2d:21,,,,,,Total Time(HH:MM:SS):,13min 25sec ,,,,,,,
Main Board Version:,D,,,,,,***Device/Error Status***,,,,,,,,
Detector Board Version:,B,,,,,,Device Status:,0x00000031,,,,,,
,,,,,,,Error status:,0x00000000,Error Code:,0x00000000000000000000000000000000,,,,,
,,,,,,,,,Error Details:,Not Found,,,,,
***Scan Data***,,,,,,,,,,,,,,,
Wavelength (nm),Absorbance (AU),Reference Signal (unitless),Sample Signal (unitless)
901.841,1.39987,99968.0,3981
905.754,1.44522,108993.0,3910
909.663,1.45851,118185.0,4112
913.568,1.41171,129285.0,5010
917.469,1.419355,143347.0,5458
921.365,1.47622,160437.0,5359
925.257,1.4482,180387.0,6427
929.144,1.44799,201426.0,7180
933.028,1.43929,220694.0,8026
936.906,1.443141,237501.0,8561
942.072,1.43369,256956.0,9466
945.94,1.43365,270636.0,9971
949.805,1.42776,283621.0,10592
953.665,1.4289,296982.0,11062
957.521,1.42853,310733.0,11584
961.373,1.41917,324587.0,12364
965.22,1.41575,339205.0,13023
969.063,1.43878,353669.0,12877
972.902,1.42191,368253.0,13939
976.736,1.430256,382531.0,14204
981.842,1.42795,399901.0,14928
985.666,1.429254,411528.0,15316
989.486,1.4245,422199.0,15886
993.302,1.42704,431172.0,16129
997.113,1.43451,438051.0,16107
1000.92,1.43626,444216.0,16268
1004.72,1.42509,449307.0,16883
1008.52,1.43861,453601.0,16522
1012.32,1.43331,456801.0,16843
1016.11,1.43492,459312.0,16873
1021.15,1.43376,461643.0,17004
1024.93,1.42627,463069.0,17353
1028.71,1.43236,463868.0,17141
1032.48,1.43612,464326.0,17010
1036.24,1.4341,466001.0,17151
1040.01,1.43455,466870.0,17165
1043.77,1.438286,467033.0,17024
1047.52,1.43393,467045.0,17196
1051.27,1.43917,467467.0,17005
1055.01,1.440141,467627.0,16973
1060,1.43366,468351.0,17255
1063.74,1.43609,469050.0,17184
1067.47,1.44423,469880.0,16895
1071.19,1.441303,471228.0,17058
1074.92,1.44164,472558.0,17093
1078.63,1.43836,474087.0,17278
1082.35,1.43271,476569.0,17596
1086.06,1.4507,479445.0,16984
1089.76,1.43731,481756.0,17600
1093.46,1.42952,485147.0,18045
1098.39,1.43625,489755.0,17936
1102.08,1.44507,493535.0,17711
1105.77,1.43335,497426.0,18339
1109.45,1.43484,501308.0,18419
1113.13,1.43931,505725.0,18391
1116.8,1.44007,509421.0,18493
1120.47,1.44076,513217.0,18601
1124.13,1.435795,517470.0,18971
1127.79,1.44869,521690.0,18566
1131.45,1.44633,526099.0,18825
1136.32,1.45599,531329.0,18594
1139.96,1.45819,535549.0,18647
1143.61,1.45605,539808.0,18888
1147.24,1.4564,543900.0,19016
1150.88,1.47607,547908.0,18308
1154.5,1.47373,552170.0,18550
1158.13,1.48503,556773.0,18224
1161.75,1.4826,561098.0,18469
1165.36,1.49754,565898.0,17997
1168.98,1.50625,571300.0,17808
1172.58,1.51026,576602.0,17808
1177.39,1.51297,584320.0,17934
1180.98,1.52502,589396.0,17595
1184.58,1.54692,596143.0,16921
1188.16,1.5669,602955.0,16345
1191.75,1.557181,609704.0,16902
1195.33,1.57264,617215.0,16512
1198.9,1.55845,624471.0,17261
1202.48,1.56405,632472.0,17258
1206.04,1.56794,640381.0,17318
1209.61,1.55465,648161.0,18073
1214.35,1.56299,659999.0,18053
1217.9,1.54977,668609.0,18854
1221.45,1.537707,677405.0,19640
1224.99,1.53038,686281.0,20236
1228.53,1.50855,695317.0,21559
1232.07,1.50122,704063.0,22202
1235.6,1.49623,713007.0,22744
1239.13,1.49223,721330.0,23222
1242.65,1.48656,730030.0,23811
1246.17,1.47449,737591.0,24736
1250.85,1.471344,746809.0,25227
1254.36,1.47598,753336.0,25177
1257.86,1.4681,759907.0,25862
1261.36,1.46488,766538.0,26282
1264.86,1.46925,774802.0,26299
1268.35,1.46668,784025.0,26770
1271.83,1.46445,794336.0,27262
1275.32,1.46489,804198.0,27572
1278.79,1.46731,813836.0,27748
1282.27,1.46064,823595.0,28515
1286.89,1.45755,834533.0,29100
1290.36,1.46169,842581.0,29102
1293.81,1.46497,849301.0,29113
1297.27,1.46174,856026.0,29563
1300.72,1.460901,862498.0,29844
1304.17,1.45909,868068.0,30162
1307.61,1.45136,872869.0,30874
1311.05,1.46127,877616.0,30341
1314.48,1.46487,881872.0,30237
1317.91,1.46525,885520.0,30335
1322.47,1.46357,888917.0,30570
1325.89,1.46247,891687.0,30743
1329.31,1.46138,894001.0,30900
1332.72,1.4556,895438.0,31364
1336.12,1.46077,896641.0,31035
1339.52,1.45509,897974.0,31490
1342.92,1.46385,898777.0,30889
1346.31,1.461845,898783.0,31032
1349.7,1.473108,898350.0,30223
1353.09,1.47802,896784.0,29831
1357.59,1.48716,895293.0,29161
1360.97,1.50524,892755.0,27893
1364.34,1.50328,890430.0,27946
1367.7,1.52311,888504.0,26641
1371.06,1.524184,885825.0,26495
1374.42,1.52617,881046.0,26232
1377.77,1.53868,874030.0,25284
1381.12,1.5492,865751.0,24445
1384.47,1.55086,857799.0,24128
1387.81,1.56054,851759.0,23430
1392.25,1.56266,846500.0,23172
1395.58,1.572828,843622.0,22559
1398.91,1.56686,841228.0,22806
1402.23,1.56644,838489.0,22754
1405.55,1.553507,836065.0,23374
1408.86,1.55138,834396.0,23442
1412.17,1.55307,832187.0,23289
1415.47,1.55891,830123.0,22921
1418.77,1.536574,828244.0,24076
1422.07,1.54031,827314.0,23843
1426.45,1.53734,826435.0,23981
1429.74,1.534813,825475.0,24093
1433.02,1.53699,824938.0,23957
1436.29,1.53067,823959.0,24279
1439.57,1.52645,823822.0,24512
1442.83,1.53032,823184.0,24276
1446.1,1.52582,821953.0,24492
1449.36,1.52706,821135.0,24398
1452.61,1.51898,819413.0,24804
1455.86,1.5171,817492.0,24853
1459.11,1.51628,814862.0,24820
1463.43,1.51793,811075.0,24611
1466.67,1.51282,807671.0,24798
1469.9,1.51439,803699.0,24587
1473.13,1.50574,799396.0,24947
1476.35,1.50337,795129.0,24950
1479.57,1.50314,790127.0,24806
1482.78,1.50768,784937.0,24387
1486,1.50659,779544.0,24280
1489.2,1.50399,773733.0,24244
1492.4,1.505625,767463.0,23957
1496.67,1.49999,758614.0,23990
1499.86,1.49765,751802.0,23903
1503.04,1.4905,744297.0,24057
1506.23,1.48778,735980.0,23938
1509.41,1.49441,728040.0,23321
1512.58,1.48924,719703.0,23330
1515.75,1.49309,710982.0,22844
1518.92,1.49164,702409.0,22644
1522.08,1.48849,693280.0,22512
1525.24,1.47679,683935.0,22815
1529.44,1.4901,671492.0,21724
1532.59,1.48586,661352.0,21606
1535.73,1.48864,650841.0,21127
1538.87,1.4839,640156.0,21008
1542,1.484071,629036.0,20635
1545.13,1.48167,617445.0,20367
1548.26,1.46983,605527.0,20526
1551.38,1.46858,594133.0,20198
1554.49,1.47035,582894.0,19735
1557.61,1.48352,571271.0,18764
1561.75,1.483646,555940.0,18255
1564.85,1.48102,544812.0,17998
1567.95,1.4795,533402.0,17683
1571.05,1.47516,521915.0,17476
1574.14,1.47772,510788.0,17003
1577.22,1.48895,499607.0,16206
1580.3,1.47801,487992.0,16233
1583.38,1.47971,476265.0,15781
1586.45,1.485,464618.0,15209
1589.52,1.47168,452782.0,15283
1593.6,1.49246,436897.0,14058
1596.66,1.48494,425551.0,13932
1599.71,1.48651,414191.0,13511
1602.76,1.50176,402799.0,12686
1605.81,1.4856,391352.0,12793
1608.85,1.48255,380811.0,12536
1611.89,1.49118,370076.0,11943
1614.92,1.49333,359798.0,11554
1617.95,1.50425,349165.0,10934
1620.97,1.49245,338717.0,10899
1624.99,1.51129,325435.0,10027
1628.01,1.48204,315463.0,10397
1631.02,1.49762,305570.0,9716
1634.02,1.50791,295762.0,9184
1637.02,1.5119,286306.0,8809
1640.02,1.51886,276696.0,8378
1643.01,1.50028,267004.0,8438
1646,1.51574,257531.0,7854
1648.98,1.502984,247817.0,7783
1651.96,1.51265,238547.0,7327
1655.93,1.52254,225092.0,6758
1658.89,1.52925,214425.0,6339
1661.86,1.48804,202241.0,6574
1664.82,1.52252,188046.0,5646
1667.78,1.52423,171566.0,5131
1670.73,1.49513,154101.0,4928
1673.67,1.52869,134892.0,3993
1676.62,1.53662,115325.0,3352
1679.56,1.565322,97255.0,2646
1682.49,1.5253,81017.0,2417
1686.4,1.57281,63571.0,1700
1689.32,1.60569,53566.0,1328
1692.24,1.94614,45493.0,515
1695.16,1.85075,39217.0,553
1698.07,1.63399,33537.0,779
1700.97,2.08576,29118.0,239